#time,accel_x,accel_y,accel_z
3388.970051,518.144159,-9918.759623,0.000000
3388.970379,518.144159,-9844.739029,0.000000
3388.970707,592.164754,-9844.739029,76.609550
3388.971034,222.061783,-9474.636058,153.219100
3388.971362,148.041188,-9326.594869,153.219100
3388.971690,0.000000,-9178.553681,459.657299
3388.972017,0.000000,-9030.512492,0.000000
3388.972345,-148.041188,-9252.574275,-306.438199
3388.972673,-296.082377,-9178.553681,-306.438199
3388.973000,0.000000,-9400.615463,-306.438199
3388.973328,0.000000,-9326.594869,153.219100
3388.973656,222.061783,-9622.677246,0.000000
3388.973983,444.123565,-9474.636058,76.609550
3388.974311,592.164754,-9696.697840,229.828649
3388.974639,740.205942,-9770.718434,229.828649
3388.974967,592.164754,-9548.656652,76.609550
3388.975294,592.164754,-9326.594869,0.000000
3388.975622,222.061783,-8956.491898,76.609550
3388.975950,592.164754,-9326.594869,-689.485948
3388.976277,0.000000,-9474.636058,-1149.143247
3388.976605,-296.082377,-9548.656652,-459.657299
3388.976933,222.061783,-10214.842000,-383.047749
3388.977260,444.123565,-10436.903782,-459.657299
3388.977588,592.164754,-10732.986159,-459.657299
3388.977916,888.247130,-10362.883188,-306.438199
3388.978243,592.164754,-10140.821405,0.000000
3388.978571,74.020594,-9474.636058,0.000000
3388.978899,0.000000,-9474.636058,0.000000
3388.979227,0.000000,-9474.636058,-383.047749
3388.979554,0.000000,-9252.574275,-536.266849
3388.979882,0.000000,-9474.636058,-383.047749
3388.980210,0.000000,-9770.718434,-459.657299
3388.980537,222.061783,-9992.780217,-306.438199
3388.980865,592.164754,-10140.821405,-459.657299
3388.981193,740.205942,-9992.780217,0.000000
3388.981520,592.164754,-9992.780217,306.438199
3388.981848,592.164754,-9844.739029,0.000000
3388.982176,296.082377,-9400.615463,153.219100
3388.982503,444.123565,-9178.553681,383.047749
3388.982831,74.020594,-8956.491898,76.609550
3388.983159,0.000000,-9030.512492,0.000000
3388.983487,-370.102971,-9252.574275,0.000000
3388.983814,-222.061783,-9400.615463,-383.047749
3388.984142,0.000000,-9474.636058,-612.876398
3388.984470,74.020594,-9622.677246,-536.266849
3388.984797,370.102971,-9622.677246,0.000000
3388.985125,222.061783,-9622.677246,0.000000
3388.985453,444.123565,-9474.636058,459.657299
3388.985780,814.226536,-9844.739029,0.000000
3388.986108,666.185348,-9622.677246,-229.828649
3388.986436,296.082377,-9474.636058,0.000000
3388.986763,148.041188,-9400.615463,-153.219100
3388.987091,296.082377,-9474.636058,-229.828649
3388.987419,666.185348,-9178.553681,-229.828649
3388.987747,666.185348,-8956.491898,-306.438199
3388.988074,2072.576638,-9696.697840,-536.266849
3388.988402,3034.844362,-9474.636058,0.000000
3388.988730,4367.215058,-9474.636058,-459.657299
3388.989057,5403.503377,-9770.718434,-229.828649
3388.989385,6439.791695,-10584.944971,0.000000
3388.989713,6365.771101,-9844.739029,-383.047749
3388.990040,6587.832884,-9252.574275,0.000000
3388.990368,7105.977043,-9622.677246,-306.438199
3388.990696,7624.121203,-9918.759623,-383.047749
3388.991023,7698.141797,-10584.944971,0.000000
3388.991351,7624.121203,-10362.883188,306.438199
3388.991679,9104.533087,-9474.636058,-459.657299
3388.992007,9548.656652,-9326.594869,-919.314598
3388.992334,9548.656652,-9178.553681,459.657299
3388.992662,10214.842000,-8586.388927,383.047749
3388.992990,10955.047942,-9252.574275,612.876398
3388.993317,11103.089130,-9548.656652,536.266849
3388.993645,10732.986159,-9400.615463,306.438199
3388.993973,10955.047942,-8734.430116,153.219100
3388.994300,10436.903782,-8216.285956,536.266849
3388.994628,12287.418637,-10066.800811,-536.266849
3388.994956,12509.480420,-10584.944971,-459.657299
3388.995284,13545.768739,-10214.842000,-229.828649
3388.995611,14359.995275,-9252.574275,0.000000
3388.995939,14582.057057,-9178.553681,995.924147
3388.996267,14434.015869,-8808.450710,1302.362347
3388.996594,13841.851115,-8734.430116,689.485948
3388.996922,12953.603985,-9770.718434,919.314598
3388.997250,13323.706956,-10732.986159,153.219100
3388.997577,12953.603985,-9844.739029,153.219100
3388.997905,12139.377449,-8882.471304,842.705048
3388.998233,11473.192101,-9400.615463,689.485948
3388.998560,10881.027347,-9622.677246,306.438199
3388.998888,11103.089130,-9844.739029,-383.047749
3388.999216,11177.109724,-10214.842000,-306.438199
3388.999544,10140.821405,-9844.739029,0.000000
3388.999871,9326.594869,-9548.656652,229.828649
3389.000199,8142.265362,-8882.471304,153.219100
3389.000527,8586.388927,-8586.388927,0.000000
3389.000854,10436.903782,-9030.512492,-612.876398
3389.001182,11103.089130,-10881.027347,-919.314598
3389.001510,9992.780217,-11547.212695,1455.581446
3389.001837,8734.430116,-10510.924376,612.876398
3389.002165,7402.059420,-9178.553681,-306.438199
3389.002493,7105.977043,-8142.265362,-1225.752797
3389.002820,8290.306550,-9178.553681,-842.705048
3389.003148,9400.615463,-11473.192101,-306.438199
3389.003476,8882.471304,-10732.986159,1149.143247
3389.003804,8956.491898,-8216.285956,689.485948
3389.004131,8586.388927,-8586.388927,76.609550
3389.004459,6957.935855,-9400.615463,459.657299
3389.004787,6883.915261,-9548.656652,536.266849
3389.005114,7624.121203,-8734.430116,-1149.143247
3389.005442,9770.718434,-8364.327145,-1762.019645
3389.005770,11103.089130,-9104.533087,0.000000
3389.006097,8660.409521,-8808.450710,2681.334243
3389.006425,7031.956449,-8882.471304,3447.429741
3389.006753,8438.347739,-9178.553681,919.314598
3389.007080,11473.192101,-9770.718434,-2834.553343
3389.007408,11399.171507,-10066.800811,-2221.676944
3389.007736,10214.842000,-8956.491898,536.266849
3389.008064,9844.739029,-9326.594869,1378.971896
3389.008391,9844.739029,-9918.759623,612.876398
3389.008719,8438.347739,-8734.430116,-153.219100
3389.009047,7550.100608,-8068.244768,-842.705048
3389.009374,9178.553681,-8956.491898,-1225.752797
3389.009702,10510.924376,-9770.718434,-995.924147
3389.010030,10658.965565,-10362.883188,-229.828649
3389.010357,10362.883188,-10732.986159,919.314598
3389.010685,10214.842000,-8364.327145,995.924147
3389.011013,10658.965565,-7772.162391,-383.047749
3389.011340,11547.212695,-9844.739029,-689.485948
3389.011668,15470.304188,-10066.800811,-842.705048
3389.011996,16432.571912,-9622.677246,-383.047749
3389.012324,13397.727550,-12139.377449,2451.505594
3389.012651,11917.315666,-12065.356855,2374.896044
3389.012979,13767.830521,-9474.636058,0.000000
3389.013307,12657.521608,-9622.677246,-1608.800546
3389.013634,11621.233289,-11843.295072,-1149.143247
3389.013962,11473.192101,-11473.192101,-689.485948
3389.014290,10066.800811,-11103.089130,1762.019645
3389.014617,9400.615463,-9400.615463,3217.601092
3389.014945,8290.306550,-7994.224174,459.657299
3389.015273,3552.988522,-8142.265362,1225.752797
3389.015600,1628.453072,-7698.141797,2145.067394
3389.015928,2516.700203,-7624.121203,-1991.848295
3389.016256,1258.350101,-8068.244768,-2298.286494
3389.016584,4145.153275,-7254.018232,-1225.752797
3389.016911,5329.482782,-8216.285956,-306.438199
3389.017239,6217.729913,-12361.439231,1762.019645
3389.017567,6735.874072,-12361.439231,1302.362347
3389.017894,7920.203579,-11103.089130,-842.705048
3389.018222,7328.038826,-9770.718434,-1685.410096
3389.018550,5995.668130,-11695.253884,459.657299
3389.018877,4811.338623,-9918.759623,2068.457845
3389.019205,4145.153275,-9474.636058,2681.334243
3389.019533,1998.556043,-10658.965565,1838.629195
3389.019860,1850.514855,-9252.574275,-306.438199
3389.020188,-444.123565,-7105.977043,-153.219100
3389.020516,-1850.514855,-7402.059420,0.000000
3389.020844,-2886.803174,-9992.780217,-1225.752797
3389.021171,-2516.700203,-9178.553681,-2374.896044
3389.021499,-2812.782580,-9178.553681,-1762.019645
3389.021827,-2812.782580,-10140.821405,0.000000
3389.022154,-2516.700203,-9474.636058,153.219100
3389.022482,-1998.556043,-10436.903782,306.438199
3389.022810,-666.185348,-11251.130318,-2451.505594
3389.023137,-1406.391290,-12065.356855,-2298.286494
3389.023465,-2368.659014,-10584.944971,-995.924147
3389.023793,-2516.700203,-8512.368333,-306.438199
3389.024121,-2146.597232,-8956.491898,1225.752797
3389.024448,-2812.782580,-9326.594869,153.219100
3389.024776,-2442.679609,-8956.491898,153.219100
3389.025104,-370.102971,-7698.141797,-1225.752797
3389.025431,-1184.329507,-8290.306550,0.000000
3389.025759,-1554.432478,-9844.739029,919.314598
3389.026087,-518.144159,-9400.615463,0.000000
3389.026414,0.000000,-8660.409521,-1685.410096
3389.026742,1184.329507,-9326.594869,-2374.896044
3389.027070,3256.906145,-9178.553681,-2451.505594
3389.027397,1998.556043,-11917.315666,995.924147
3389.027725,2516.700203,-12435.459826,1302.362347
3389.028053,3701.029710,-10436.903782,-1378.971896
3389.028381,2220.617826,-10658.965565,-766.095498
3389.028708,2368.659014,-10510.924376,-1225.752797
3389.029036,1924.535449,-11251.130318,-995.924147
3389.029364,518.144159,-8438.347739,76.609550
3389.029691,1332.370696,-6661.853478,76.609550
3389.030019,1036.288319,-7994.224174,1072.533697
3389.030347,1776.494261,-9474.636058,2298.286494
3389.030674,2664.741391,-8216.285956,842.705048
3389.031002,3552.988522,-10066.800811,-229.828649
3389.031330,2886.803174,-9992.780217,-1225.752797
3389.031657,2516.700203,-10066.800811,-842.705048
3389.031985,2368.659014,-10510.924376,-536.266849
3389.032313,888.247130,-11177.109724,229.828649
3389.032641,2368.659014,-10436.903782,0.000000
3389.032968,3701.029710,-10807.006753,-1378.971896
3389.033296,2368.659014,-12805.562797,1149.143247
3389.033624,1776.494261,-10362.883188,1838.629195
3389.033951,-296.082377,-8882.471304,306.438199
3389.034279,-1480.411884,-8660.409521,0.000000
3389.034607,-1480.411884,-8142.265362,-995.924147
3389.034935,-3552.988522,-6291.750507,0.000000
3389.035262,-1406.391290,-6883.915261,612.876398
3389.035590,1258.350101,-7254.018232,-536.266849
3389.035918,1702.473667,-11029.068536,0.000000
3389.036246,888.247130,-13397.727550,2911.162892
3389.036574,1184.329507,-10807.006753,919.314598
3389.036902,1184.329507,-10214.842000,-1455.581446
3389.037229,1036.288319,-11843.295072,-2757.943793
3389.037557,-296.082377,-12953.603985,-306.438199
3389.037885,-1258.350101,-8956.491898,689.485948
3389.038213,740.205942,-6661.853478,-459.657299
3389.038541,-222.061783,-10066.800811,383.047749
3389.038868,-2220.617826,-11991.336260,1302.362347
3389.039196,-2368.659014,-8068.244768,306.438199
3389.039524,-2664.741391,-6291.750507,-2451.505594
3389.039852,-3997.112087,-8364.327145,-2987.772442
3389.040180,-2812.782580,-9326.594869,-1455.581446
3389.040508,-1702.473667,-8586.388927,459.657299
3389.040835,-296.082377,-8068.244768,0.000000
3389.041163,888.247130,-11547.212695,-153.219100
3389.041491,-370.102971,-12139.377449,-306.438199
3389.041819,-222.061783,-11843.295072,-306.438199
3389.042147,-222.061783,-9400.615463,-1685.410096
3389.042475,-296.082377,-9622.677246,-1378.971896
3389.042802,-444.123565,-10214.842000,-689.485948
3389.043130,814.226536,-11399.171507,229.828649
3389.043458,962.267725,-8734.430116,306.438199
3389.043786,370.102971,-6439.791695,1149.143247
3389.044114,-1850.514855,-7624.121203,919.314598
3389.044441,-2516.700203,-10732.986159,0.000000
3389.044769,-888.247130,-9770.718434,-1915.238745
3389.045097,592.164754,-5921.647536,-3294.210641
3389.045425,1998.556043,-9252.574275,-1149.143247
3389.045753,2886.803174,-13101.645173,1378.971896
3389.046081,3627.009116,-12361.439231,2834.553343
3389.046408,3034.844362,-9326.594869,612.876398
3389.046736,2368.659014,-11547.212695,-1302.362347
3389.047064,444.123565,-12657.521608,-2604.724693
3389.047392,0.000000,-9696.697840,-1302.362347
3389.047720,0.000000,-7179.997637,229.828649
3389.048047,74.020594,-7772.162391,0.000000
3389.048375,814.226536,-8808.450710,1838.629195
3389.048703,2368.659014,-8068.244768,1302.362347
3389.049031,2886.803174,-8438.347739,1149.143247
3389.049359,2368.659014,-7328.038826,1149.143247
3389.049687,2516.700203,-9104.533087,536.266849
3389.050014,1406.391290,-9844.739029,1532.190996
3389.050342,2072.576638,-9252.574275,689.485948
3389.050670,518.144159,-8216.285956,0.000000
3389.050998,-1110.308913,-11769.274478,842.705048
3389.051326,0.000000,-12879.583391,-612.876398
3389.051653,296.082377,-11843.295072,-2987.772442
3389.051981,-1258.350101,-12435.459826,-1838.629195
3389.052309,-1554.432478,-10732.986159,-1225.752797
3389.052637,-1480.411884,-9770.718434,-842.705048
3389.052965,-1628.453072,-8216.285956,0.000000
3389.053293,592.164754,-6809.894666,76.609550
3389.053620,1258.350101,-6809.894666,383.047749
3389.053948,592.164754,-8808.450710,2987.772442
3389.054276,1480.411884,-10140.821405,1378.971896
3389.054604,1998.556043,-10807.006753,689.485948
3389.054932,518.144159,-11029.068536,-459.657299
3389.055260,-740.205942,-11695.253884,-689.485948
3389.055587,-740.205942,-10362.883188,-2987.772442
3389.055915,-1332.370696,-10214.842000,-2221.676944
3389.056243,0.000000,-10140.821405,-842.705048
3389.056571,296.082377,-11103.089130,229.828649
3389.056899,-296.082377,-10436.903782,1149.143247
3389.057226,-666.185348,-8068.244768,0.000000
3389.057554,-2442.679609,-7920.203579,-1378.971896
3389.057882,-4367.215058,-7846.182985,-842.705048
3389.058210,-3849.070898,-7105.977043,-1149.143247
3389.058538,-2442.679609,-7031.956449,-689.485948
3389.058866,-444.123565,-9178.553681,153.219100
3389.059193,222.061783,-10362.883188,1762.019645
3389.059521,2294.638420,-11251.130318,612.876398
3389.059849,2812.782580,-10362.883188,-459.657299
3389.060177,2072.576638,-11917.315666,-229.828649
3389.060505,-222.061783,-10955.047942,76.609550
3389.060832,-444.123565,-9252.574275,0.000000
3389.061160,-370.102971,-8882.471304,306.438199
3389.061488,592.164754,-7402.059420,-536.266849
3389.061816,-1332.370696,-8512.368333,1378.971896
3389.062144,-2516.700203,-9770.718434,1072.533697
3389.062472,-1924.535449,-10140.821405,-2221.676944
3389.062799,-370.102971,-8586.388927,-4213.525239
3389.063127,518.144159,-8956.491898,-2911.162892
3389.063455,962.267725,-11695.253884,1685.410096
3389.063783,1998.556043,-10584.944971,2834.553343
3389.064111,3627.009116,-9400.615463,1532.190996
3389.064439,3701.029710,-11547.212695,0.000000
3389.064766,1702.473667,-12583.501014,-229.828649
3389.065094,296.082377,-9844.739029,-229.828649
3389.065422,-148.041188,-8364.327145,-842.705048
3389.065750,74.020594,-8882.471304,-1532.190996
3389.066078,-296.082377,-10140.821405,-1149.143247
3389.066405,1110.308913,-9252.574275,306.438199
3389.066733,2738.761985,-8068.244768,1149.143247
3389.067061,2516.700203,-8956.491898,689.485948
3389.067389,1628.453072,-10436.903782,919.314598
3389.067717,1628.453072,-9844.739029,1455.581446
3389.068045,2664.741391,-7402.059420,536.266849
3389.068372,2738.761985,-6809.894666,-766.095498
3389.068700,-444.123565,-10584.944971,1149.143247
3389.069028,-1924.535449,-11621.233289,1608.800546
3389.069356,-1258.350101,-9326.594869,-1608.800546
3389.069684,-1110.308913,-10436.903782,-3370.820191
3389.070011,-2146.597232,-11843.295072,-2068.457845
3389.070339,-1628.453072,-11843.295072,-612.876398
3389.070667,74.020594,-8956.491898,76.609550
3389.070995,1258.350101,-7476.080014,-612.876398
3389.071323,1258.350101,-7105.977043,76.609550
3389.071651,888.247130,-8808.450710,1608.800546
3389.071978,888.247130,-9030.512492,2298.286494
3389.072306,2294.638420,-9400.615463,612.876398
3389.072634,148.041188,-9844.739029,383.047749
3389.072962,-962.267725,-11251.130318,536.266849
3389.073290,-296.082377,-11621.233289,-1838.629195
3389.073617,-518.144159,-9770.718434,-3217.601092
3389.073945,0.000000,-10510.924376,-1762.019645
3389.074273,1776.494261,-11843.295072,-1302.362347
3389.074601,2368.659014,-13323.706956,689.485948
3389.074929,0.000000,-9622.677246,1225.752797
3389.075257,-1480.411884,-7402.059420,229.828649
3389.075584,-3108.864956,-8364.327145,-995.924147
3389.075912,-2886.803174,-9252.574275,-1302.362347
3389.076240,-2072.576638,-7920.203579,-1455.581446
3389.076568,-1184.329507,-8216.285956,-306.438199
3389.076896,0.000000,-9622.677246,-153.219100
3389.077224,1776.494261,-10362.883188,-766.095498
3389.077551,1332.370696,-11769.274478,76.609550
3389.077879,370.102971,-9474.636058,536.266849
3389.078207,370.102971,-8882.471304,0.000000
3389.078535,518.144159,-9326.594869,-842.705048
3389.078863,1110.308913,-10732.986159,229.828649
3389.079190,1258.350101,-8808.450710,1838.629195
3389.079518,888.247130,-7105.977043,2068.457845
3389.079846,-888.247130,-8290.306550,1455.581446
3389.080174,-2812.782580,-9252.574275,-689.485948
3389.080502,-2294.638420,-9474.636058,-2987.772442
3389.080830,-1258.350101,-7105.977043,-3140.991542
3389.081157,666.185348,-9252.574275,-1915.238745
3389.081485,1776.494261,-11103.089130,1072.533697
3389.081813,2516.700203,-12657.521608,3064.381992
3389.082141,2664.741391,-10807.006753,2068.457845
3389.082469,2146.597232,-9252.574275,-995.924147
3389.082796,1110.308913,-9474.636058,-1915.238745
3389.083124,1036.288319,-11325.150913,-1302.362347
3389.083452,666.185348,-9918.759623,76.609550
3389.083780,444.123565,-8216.285956,0.000000
3389.084108,-296.082377,-8216.285956,306.438199
3389.084436,592.164754,-10584.944971,0.000000
3389.084763,1628.453072,-11177.109724,-536.266849
3389.085091,1776.494261,-9770.718434,-1532.190996
3389.085419,1776.494261,-10214.842000,-995.924147
3389.085747,2516.700203,-9992.780217,-1455.581446
3389.086075,2886.803174,-9696.697840,76.609550
3389.086403,74.020594,-9400.615463,3064.381992
3389.086730,370.102971,-9474.636058,1685.410096
3389.087058,2590.720797,-11399.171507,-766.095498
3389.087386,1184.329507,-9918.759623,-2068.457845
3389.087714,-222.061783,-10288.862594,-995.924147
3389.088042,-3108.864956,-9696.697840,1072.533697
3389.088369,-1998.556043,-9474.636058,383.047749
3389.088697,-962.267725,-8068.244768,-2911.162892
3389.089025,-666.185348,-8290.306550,-1838.629195
3389.089353,-2294.638420,-7105.977043,76.609550
3389.089681,0.000000,-8438.347739,1072.533697
3389.090009,1702.473667,-8956.491898,459.657299
3389.090336,1998.556043,-10807.006753,1378.971896
3389.090664,296.082377,-11103.089130,2834.553343
3389.090992,1184.329507,-11177.109724,919.314598
3389.091320,666.185348,-10732.986159,-3064.381992
3389.091648,-370.102971,-11029.068536,-2987.772442
3389.091975,-962.267725,-10362.883188,-995.924147
3389.092303,0.000000,-8660.409521,-919.314598
3389.092631,0.000000,-8586.388927,0.000000
3389.092959,666.185348,-9104.533087,229.828649
3389.093287,1776.494261,-11991.336260,1302.362347
3389.093615,1554.432478,-11103.089130,-306.438199
3389.093942,740.205942,-8438.347739,-1685.410096
3389.094270,-444.123565,-7550.100608,-2374.896044
3389.094598,-1554.432478,-10881.027347,-383.047749
3389.094926,-1258.350101,-11621.233289,229.828649
3389.095254,0.000000,-8808.450710,-1225.752797
3389.095581,-296.082377,-8660.409521,-1225.752797
3389.095909,-666.185348,-10955.047942,-1149.143247
3389.096237,-1480.411884,-11029.068536,306.438199
3389.096565,-222.061783,-9030.512492,-383.047749
3389.096893,2368.659014,-9844.739029,-536.266849
3389.097221,1850.514855,-9622.677246,153.219100
3389.097548,518.144159,-8512.368333,2298.286494
3389.097876,-1850.514855,-6439.791695,1608.800546
3389.098204,-1480.411884,-8882.471304,-536.266849
3389.098532,-1702.473667,-9548.656652,-1608.800546
3389.098860,-592.164754,-10362.883188,-1302.362347
3389.099188,-222.061783,-9474.636058,-383.047749
3389.099515,740.205942,-10362.883188,0.000000
3389.099843,1850.514855,-11399.171507,689.485948
3389.100171,1554.432478,-9696.697840,-383.047749
3389.100499,814.226536,-10732.986159,689.485948
3389.100827,888.247130,-8364.327145,0.000000
3389.101154,222.061783,-7772.162391,536.266849
3389.101482,370.102971,-7402.059420,-459.657299
3389.101810,888.247130,-9474.636058,1149.143247
3389.102138,2368.659014,-9178.553681,2145.067394
3389.102466,2368.659014,-8438.347739,459.657299
3389.102794,2220.617826,-10214.842000,-459.657299
3389.103121,1924.535449,-11843.295072,-995.924147
3389.103449,2072.576638,-10066.800811,-1149.143247
3389.103777,1850.514855,-8216.285956,-995.924147
3389.104105,444.123565,-10436.903782,536.266849
3389.104433,370.102971,-10732.986159,0.000000
3389.104760,2368.659014,-10881.027347,0.000000
3389.105088,2146.597232,-11399.171507,0.000000
3389.105416,3034.844362,-11917.315666,-766.095498
3389.105744,1332.370696,-9030.512492,-1149.143247
3389.106072,0.000000,-10214.842000,306.438199
3389.106400,-2146.597232,-9178.553681,-536.266849
3389.106727,-1776.494261,-7624.121203,-995.924147
3389.107055,-2220.617826,-7846.182985,-919.314598
3389.107383,-962.267725,-9548.656652,-1915.238745
3389.107711,-444.123565,-10288.862594,-612.876398
3389.108039,0.000000,-10214.842000,-153.219100
3389.108367,814.226536,-11473.192101,229.828649
3389.108694,1850.514855,-11621.233289,-842.705048
3389.109022,1332.370696,-11473.192101,0.000000
3389.109350,0.000000,-9326.594869,306.438199
3389.109678,-592.164754,-8734.430116,76.609550
3389.110006,-1184.329507,-7846.182985,-536.266849
3389.110333,-888.247130,-9992.780217,229.828649
3389.110661,-592.164754,-8586.388927,766.095498
3389.110989,-740.205942,-8512.368333,383.047749
3389.111317,444.123565,-8586.388927,-766.095498
3389.111645,2146.597232,-10066.800811,-1225.752797
3389.111973,444.123565,-11843.295072,229.828649
3389.112300,148.041188,-8290.306550,536.266849
3389.112628,-814.226536,-7105.977043,306.438199
3389.112956,-2664.741391,-10140.821405,76.609550
3389.113284,-2516.700203,-10955.047942,229.828649
3389.113612,-1776.494261,-8216.285956,-919.314598
3389.113939,-814.226536,-8290.306550,-1685.410096
3389.114267,-444.123565,-9918.759623,-1762.019645
3389.114595,222.061783,-11991.336260,-383.047749
3389.114923,-148.041188,-7994.224174,536.266849
3389.115251,148.041188,-7550.100608,995.924147
3389.115579,148.041188,-9918.759623,153.219100
3389.115906,296.082377,-11621.233289,-766.095498
3389.116234,370.102971,-9326.594869,-383.047749
3389.116562,2072.576638,-8290.306550,-1378.971896
3389.116890,1184.329507,-11251.130318,-306.438199
3389.117218,1110.308913,-11917.315666,1378.971896
3389.117545,1110.308913,-11325.150913,76.609550
3389.117873,666.185348,-9474.636058,-2221.676944
3389.118201,-518.144159,-9326.594869,-1608.800546
3389.118529,-1184.329507,-9844.739029,-1455.581446
3389.118857,-518.144159,-9474.636058,0.000000
3389.119185,148.041188,-8586.388927,995.924147
3389.119512,592.164754,-8956.491898,689.485948
3389.119840,1554.432478,-9844.739029,0.000000
3389.120168,3182.885551,-10658.965565,-383.047749
3389.120496,2886.803174,-10288.862594,76.609550
3389.120824,740.205942,-8734.430116,1225.752797
3389.121152,1110.308913,-8290.306550,0.000000
3389.121479,1998.556043,-8290.306550,-1838.629195
3389.121807,444.123565,-10881.027347,0.000000
3389.122135,0.000000,-10362.883188,1225.752797
3389.122463,1850.514855,-9104.533087,-459.657299
3389.122791,3552.988522,-10658.965565,-1608.800546
3389.123118,3404.947333,-12583.501014,-459.657299
3389.123446,1332.370696,-10658.965565,1608.800546
3389.123774,0.000000,-6069.688724,2451.505594
3389.124102,74.020594,-6883.915261,-612.876398
3389.124430,-814.226536,-9622.677246,-689.485948
3389.124758,-2590.720797,-8068.244768,306.438199
3389.125085,-2294.638420,-7031.956449,-536.266849
3389.125413,-592.164754,-10288.862594,-1378.971896
3389.125741,296.082377,-11547.212695,-995.924147
3389.126069,518.144159,-12287.418637,0.000000
3389.126397,518.144159,-10436.903782,-536.266849
3389.126724,592.164754,-9622.677246,-1532.190996
3389.127052,-296.082377,-11547.212695,-766.095498
3389.127380,-222.061783,-10584.944971,612.876398
3389.127708,444.123565,-9030.512492,1532.190996
3389.128036,666.185348,-8586.388927,689.485948
3389.128364,-518.144159,-9104.533087,842.705048
3389.128691,0.000000,-10140.821405,-536.266849
3389.129019,-518.144159,-9400.615463,-1455.581446
3389.129347,-1332.370696,-8216.285956,-1378.971896
3389.129675,-592.164754,-10140.821405,-612.876398
3389.130003,222.061783,-10436.903782,-919.314598
3389.130330,1480.411884,-10214.842000,-306.438199
3389.130658,222.061783,-9474.636058,919.314598
3389.130986,-1628.453072,-10288.862594,1072.533697
3389.131314,-1406.391290,-10955.047942,-383.047749
3389.131642,-740.205942,-9622.677246,-2068.457845
3389.131970,-1406.391290,-8586.388927,-1685.410096
3389.132297,-1850.514855,-8808.450710,383.047749
3389.132625,-148.041188,-7772.162391,612.876398
3389.132953,-222.061783,-6883.915261,1072.533697
3389.133281,-1110.308913,-9844.739029,2374.896044
3389.133609,-666.185348,-9918.759623,-229.828649
3389.133937,-518.144159,-8956.491898,-1915.238745
3389.134264,1406.391290,-8586.388927,-1991.848295
3389.134592,3330.926739,-11029.068536,-995.924147
3389.134920,2072.576638,-12361.439231,3140.991542
3389.135248,1628.453072,-9844.739029,2757.943793
3389.135576,1110.308913,-8364.327145,-842.705048
3389.135903,0.000000,-10436.903782,-1915.238745
3389.136231,-888.247130,-10066.800811,-1532.190996
3389.136559,-1628.453072,-8290.306550,-766.095498
3389.136886,-666.185348,-8438.347739,-612.876398
3389.137214,592.164754,-9326.594869,-1149.143247
3389.137542,1998.556043,-10955.047942,76.609550
3389.137869,1850.514855,-9178.553681,1225.752797
3389.138197,2442.679609,-9178.553681,536.266849
3389.138525,1850.514855,-10140.821405,-306.438199
3389.138852,2220.617826,-9622.677246,-689.485948
3389.139180,1776.494261,-9104.533087,76.609550
3389.139507,1110.308913,-8808.450710,689.485948
3389.139835,0.000000,-10140.821405,919.314598
3389.140163,592.164754,-11917.315666,-842.705048
3389.140490,1924.535449,-12657.521608,-2681.334243
3389.140818,518.144159,-10584.944971,-2221.676944
3389.141146,962.267725,-9770.718434,0.000000
3389.141473,592.164754,-8438.347739,1225.752797
3389.141801,1332.370696,-9548.656652,1532.190996
3389.142129,1184.329507,-7476.080014,1532.190996
3389.142456,-296.082377,-7105.977043,1302.362347
3389.142784,-1332.370696,-7105.977043,0.000000
3389.143111,0.000000,-10288.862594,-1072.533697
3389.143439,-1258.350101,-11029.068536,0.000000
3389.143767,-1554.432478,-9474.636058,-919.314598
3389.144094,-1258.350101,-10066.800811,-612.876398
3389.144422,-296.082377,-12065.356855,-2068.457845
3389.144750,-296.082377,-11843.295072,-1915.238745
3389.145077,-518.144159,-10288.862594,153.219100
3389.145405,1480.411884,-8956.491898,383.047749
3389.145733,1480.411884,-9252.574275,459.657299
3389.146060,666.185348,-9992.780217,1838.629195
3389.146388,-296.082377,-8068.244768,2145.067394
3389.146715,518.144159,-7846.182985,306.438199
3389.147043,0.000000,-8216.285956,-1455.581446
3389.147371,-888.247130,-9326.594869,-1685.410096
3389.147698,0.000000,-9844.739029,-229.828649
3389.148026,1628.453072,-10955.047942,-689.485948
3389.148354,2220.617826,-11843.295072,-1302.362347
3389.148681,1480.411884,-11917.315666,-1915.238745
3389.149009,-888.247130,-11473.192101,-153.219100
3389.149337,-1258.350101,-9992.780217,-1072.533697
3389.149664,-1480.411884,-9104.533087,-1455.581446
3389.149992,-1776.494261,-8438.347739,-1532.190996
3389.150319,-370.102971,-10288.862594,-383.047749
3389.150647,-1036.288319,-8734.430116,1149.143247
3389.150975,-740.205942,-7328.038826,1455.581446
3389.151302,-1184.329507,-9474.636058,919.314598
3389.151630,-1110.308913,-11251.130318,-1225.752797
3389.151958,-370.102971,-10066.800811,-2221.676944
3389.152285,1554.432478,-7624.121203,-2298.286494
3389.152613,3256.906145,-10807.006753,0.000000
3389.152940,1184.329507,-13101.645173,3524.039291
3389.153268,1332.370696,-10807.006753,2911.162892
3389.153596,0.000000,-7105.977043,76.609550
3389.153923,-148.041188,-8660.409521,-1378.971896
3389.154251,-740.205942,-9770.718434,-1455.581446
3389.154579,-1480.411884,-8808.450710,459.657299
3389.154906,-1406.391290,-6809.894666,842.705048
3389.155234,222.061783,-8290.306550,-459.657299
3389.155562,296.082377,-9474.636058,919.314598
3389.155889,888.247130,-8586.388927,1149.143247
3389.156217,1776.494261,-9696.697840,995.924147
3389.156544,2738.761985,-10140.821405,229.828649
3389.156872,3478.967927,-9400.615463,76.609550
3389.157200,2590.720797,-8882.471304,-306.438199
3389.157527,444.123565,-10214.842000,1302.362347
3389.157855,-666.185348,-10066.800811,1455.581446
3389.158183,-370.102971,-10584.944971,-995.924147
3389.158510,222.061783,-11769.274478,-2757.943793
3389.158838,740.205942,-10658.965565,-2681.334243
3389.159166,1110.308913,-9770.718434,-536.266849
3389.159493,148.041188,-9696.697840,1532.190996
3389.159821,1554.432478,-10436.903782,919.314598
3389.160148,1924.535449,-9252.574275,-306.438199
3389.160476,0.000000,-7328.038826,-383.047749
3389.160804,-814.226536,-7402.059420,-306.438199
3389.161131,74.020594,-10362.883188,153.219100
3389.161459,0.000000,-11251.130318,306.438199
3389.161787,222.061783,-12509.480420,383.047749
3389.162114,74.020594,-11177.109724,-1532.190996
3389.162442,-518.144159,-10362.883188,-2911.162892
3389.162770,0.000000,-11177.109724,-2451.505594
3389.163097,-518.144159,-9400.615463,-1532.190996
3389.163425,0.000000,-8734.430116,919.314598
3389.163752,1036.288319,-8438.347739,2145.067394
3389.164080,1184.329507,-9992.780217,2374.896044
3389.164408,296.082377,-8216.285956,1149.143247
3389.164735,444.123565,-8216.285956,306.438199
3389.165063,-1480.411884,-8660.409521,459.657299
3389.165391,-444.123565,-8660.409521,-1149.143247
3389.165718,518.144159,-8512.368333,-842.705048
3389.166046,1628.453072,-10214.842000,536.266849
3389.166374,2146.597232,-11695.253884,919.314598
3389.166701,1850.514855,-11547.212695,459.657299
3389.167029,-1184.329507,-9030.512492,-842.705048
3389.167356,-1924.535449,-9844.739029,-1302.362347
3389.167684,-2368.659014,-10066.800811,-995.924147
3389.168012,-1776.494261,-8734.430116,-842.705048
3389.168339,0.000000,-7179.997637,-842.705048
3389.168667,-444.123565,-7179.997637,919.314598
3389.168995,-1332.370696,-10362.883188,2528.115143
3389.169322,-296.082377,-10288.862594,-1455.581446
3389.169650,-1258.350101,-9770.718434,-1532.190996
3389.169978,-444.123565,-8438.347739,-2757.943793
3389.170305,2368.659014,-10288.862594,-2987.772442
3389.170633,1258.350101,-13989.892304,1685.410096
3389.170960,2368.659014,-12139.377449,2298.286494
3389.171288,2960.823768,-9622.677246,-842.705048
3389.171616,370.102971,-11177.109724,-383.047749
3389.171943,-2072.576638,-10436.903782,-766.095498
3389.172271,-1184.329507,-7328.038826,-995.924147
3389.172599,-1480.411884,-6883.915261,-306.438199
3389.172926,-1110.308913,-7105.977043,0.000000
3389.173254,444.123565,-10066.800811,383.047749
3389.173582,962.267725,-10436.903782,1532.190996
3389.173909,2368.659014,-9400.615463,919.314598
3389.174237,3552.988522,-9400.615463,-689.485948
3389.174564,2590.720797,-11029.068536,-459.657299
3389.174892,2220.617826,-9918.759623,0.000000
3389.175220,1110.308913,-8512.368333,306.438199
3389.175547,-888.247130,-9104.533087,1149.143247
3389.175875,888.247130,-9918.759623,306.438199
3389.176203,1924.535449,-11251.130318,-383.047749
3389.176530,1036.288319,-10362.883188,-842.705048
3389.176858,-296.082377,-8956.491898,76.609550
3389.177186,444.123565,-9178.553681,-612.876398
3389.177513,888.247130,-9474.636058,-306.438199
3389.177841,296.082377,-8438.347739,1302.362347
3389.178168,148.041188,-6143.709319,612.876398
3389.178496,370.102971,-7105.977043,-153.219100
3389.178824,1554.432478,-10881.027347,-306.438199
3389.179151,962.267725,-12065.356855,842.705048
3389.179479,296.082377,-10140.821405,1149.143247
3389.179807,962.267725,-10510.924376,-1225.752797
3389.180134,444.123565,-11991.336260,-3140.991542
3389.180462,-888.247130,-12583.501014,-2145.067394
3389.180790,-1110.308913,-9696.697840,-1302.362347
3389.181117,222.061783,-8734.430116,-459.657299
3389.181445,666.185348,-8882.471304,0.000000
3389.181772,1110.308913,-10584.944971,919.314598
3389.182100,-1036.288319,-9918.759623,2145.067394
3389.182428,0.000000,-8216.285956,0.000000
3389.182755,666.185348,-9252.574275,-2451.505594
3389.183083,1110.308913,-11399.171507,-3140.991542
3389.183411,74.020594,-9474.636058,766.095498
3389.183738,74.020594,-8586.388927,1762.019645
3389.184066,222.061783,-9696.697840,1455.581446
3389.184394,1554.432478,-11621.233289,-842.705048
3389.184721,518.144159,-12657.521608,-1455.581446
3389.185049,-2072.576638,-9400.615463,-1149.143247
3389.185376,-1332.370696,-7994.224174,-1915.238745
3389.185704,-1184.329507,-10436.903782,-1762.019645
3389.186032,-592.164754,-10955.047942,536.266849
3389.186359,-222.061783,-7179.997637,1838.629195
3389.186687,-962.267725,-6439.791695,2145.067394
3389.187015,-1702.473667,-8734.430116,536.266849
3389.187342,-518.144159,-9252.574275,-2221.676944
3389.187670,-888.247130,-8956.491898,-1915.238745
3389.187997,-1184.329507,-7179.997637,-995.924147
3389.188325,1924.535449,-11251.130318,76.609550
3389.188653,1998.556043,-13915.871710,1149.143247
3389.188980,2738.761985,-12509.480420,459.657299
3389.189308,1258.350101,-9548.656652,-1302.362347
3389.189636,-888.247130,-9474.636058,-995.924147
3389.189963,-2072.576638,-9030.512492,-689.485948
3389.190291,-370.102971,-8660.409521,-383.047749
3389.190619,-2146.597232,-8364.327145,766.095498
3389.190946,-296.082377,-6809.894666,1072.533697
3389.191274,1850.514855,-8882.471304,383.047749
3389.191601,1628.453072,-11029.068536,842.705048
3389.191929,2146.597232,-10436.903782,536.266849
3389.192257,1406.391290,-8956.491898,-383.047749
3389.192584,1258.350101,-10881.027347,-306.438199
3389.192912,2886.803174,-8734.430116,-1378.971896
3389.193240,1850.514855,-9622.677246,0.000000
3389.193567,-2294.638420,-10807.006753,2528.115143
3389.193895,1036.288319,-11325.150913,76.609550
3389.194223,3404.947333,-11991.336260,-2757.943793
3389.194550,2294.638420,-12213.398043,-919.314598
3389.194878,592.164754,-8808.450710,919.314598
3389.195205,1036.288319,-8512.368333,919.314598
3389.195533,74.020594,-8808.450710,1149.143247
3389.195861,296.082377,-7402.059420,-842.705048
3389.196188,-666.185348,-7328.038826,-383.047749
3389.196516,-1776.494261,-7031.956449,1149.143247
3389.196844,666.185348,-9400.615463,919.314598
3389.197171,1702.473667,-11621.233289,0.000000
3389.197499,1110.308913,-13471.748144,0.000000
3389.197827,666.185348,-11325.150913,-1302.362347
3389.198154,-444.123565,-10066.800811,-1532.190996
3389.198482,-1036.288319,-10214.842000,-995.924147
3389.198809,444.123565,-8808.450710,-1225.752797
3389.199137,148.041188,-8364.327145,153.219100
3389.199465,370.102971,-8438.347739,1838.629195
3389.199792,1406.391290,-10362.883188,1455.581446
3389.200120,370.102971,-9918.759623,306.438199
3389.200448,370.102971,-9030.512492,-919.314598
3389.200775,-814.226536,-8660.409521,-1608.800546
3389.201103,-1036.288319,-9474.636058,-306.438199
3389.201431,666.185348,-8068.244768,-459.657299
3389.201758,2072.576638,-9400.615463,0.000000
3389.202086,1406.391290,-11695.253884,1608.800546
3389.202413,2220.617826,-11695.253884,383.047749
3389.202741,1036.288319,-11103.089130,-1225.752797
3389.203069,-1776.494261,-9548.656652,-2221.676944
3389.203396,-2368.659014,-9252.574275,-1762.019645
3389.203724,-3330.926739,-9844.739029,-459.657299
3389.204052,-814.226536,-9030.512492,459.657299
3389.204379,148.041188,-6809.894666,0.000000
3389.204707,-1850.514855,-9918.759623,2374.896044
3389.205035,-2516.700203,-9548.656652,612.876398
3389.205362,74.020594,-8660.409521,-3294.210641
3389.205690,-370.102971,-8290.306550,-2834.553343
3389.206017,592.164754,-10362.883188,-766.095498
3389.206345,1184.329507,-11473.192101,842.705048
3389.206673,1480.411884,-12213.398043,2911.162892
3389.207000,1850.514855,-9474.636058,995.924147
3389.207328,1998.556043,-9844.739029,-2374.896044
3389.207656,-1628.453072,-11547.212695,-459.657299
3389.207983,-2294.638420,-8068.244768,-612.876398
3389.208311,0.000000,-7105.977043,-2451.505594
3389.208639,-518.144159,-7031.956449,76.609550
3389.208966,666.185348,-8586.388927,1685.410096
3389.209294,1258.350101,-9474.636058,2757.943793
3389.209621,1406.391290,-8956.491898,2145.067394
3389.209949,1702.473667,-9622.677246,-536.266849
3389.210277,1554.432478,-10955.047942,-1455.581446
3389.210604,370.102971,-9326.594869,-612.876398
3389.210932,1554.432478,-6291.750507,0.000000
3389.211260,1628.453072,-8660.409521,-383.047749
3389.211587,-666.185348,-12139.377449,459.657299
3389.211915,962.267725,-13323.706956,-536.266849
3389.212243,1702.473667,-10807.006753,-2451.505594
3389.212570,1110.308913,-10066.800811,-536.266849
3389.212898,740.205942,-9030.512492,0.000000
3389.213225,888.247130,-10066.800811,612.876398
3389.213553,296.082377,-9474.636058,1149.143247
3389.213881,1924.535449,-7105.977043,-995.924147
3389.214208,740.205942,-7550.100608,-1685.410096
3389.214536,-444.123565,-10288.862594,0.000000
3389.214864,-370.102971,-10732.986159,76.609550
3389.215191,-740.205942,-10214.842000,229.828649
3389.215519,-296.082377,-11029.068536,-536.266849
3389.215847,148.041188,-11769.274478,-2451.505594
3389.216174,-296.082377,-12509.480420,-1915.238745
3389.216502,74.020594,-9770.718434,-995.924147
3389.216829,1184.329507,-8956.491898,-612.876398
3389.217157,1332.370696,-8512.368333,536.266849
3389.217485,740.205942,-9252.574275,1762.019645
3389.217812,-740.205942,-9622.677246,2451.505594
3389.218140,-962.267725,-8586.388927,1072.533697
3389.218468,-666.185348,-7772.162391,-995.924147
3389.218795,-370.102971,-9622.677246,-1838.629195
3389.219123,-814.226536,-10214.842000,-153.219100
3389.219451,-296.082377,-7624.121203,766.095498
3389.219778,2294.638420,-9474.636058,842.705048
3389.220106,2516.700203,-12435.459826,153.219100
3389.220433,2738.761985,-11473.192101,536.266849
3389.220761,-518.144159,-8512.368333,383.047749
3389.221089,-1702.473667,-8438.347739,76.609550
3389.221416,-1184.329507,-9992.780217,-1302.362347
3389.221744,-2146.597232,-10881.027347,-612.876398
3389.222072,-1036.288319,-7846.182985,229.828649
3389.222399,-1036.288319,-5625.565159,459.657299
3389.222727,-1628.453072,-8734.430116,995.924147
3389.223054,-962.267725,-10881.027347,-1378.971896
3389.223382,-1036.288319,-10732.986159,-2451.505594
3389.223710,-296.082377,-10214.842000,-1532.190996
3389.224037,1850.514855,-8364.327145,-995.924147
3389.224365,2664.741391,-11843.295072,842.705048
3389.224693,444.123565,-14211.954086,3830.477490
3389.225020,1850.514855,-10732.986159,1455.581446
3389.225348,1554.432478,-7920.203579,-2681.334243
3389.225676,-1184.329507,-9622.677246,-2604.724693
3389.226003,-2812.782580,-10288.862594,-689.485948
3389.226331,-1258.350101,-7698.141797,0.000000
3389.226658,-1776.494261,-5699.585753,919.314598
3389.226986,-222.061783,-7994.224174,1149.143247
3389.227314,1406.391290,-11029.068536,842.705048
3389.227641,2368.659014,-11325.150913,1302.362347
3389.227969,1924.535449,-9474.636058,306.438199
3389.228297,2072.576638,-9770.718434,-1072.533697
3389.228624,2442.679609,-9474.636058,-306.438199
3389.228952,2886.803174,-8216.285956,153.219100
3389.229280,222.061783,-8142.265362,1608.800546
3389.229607,-1850.514855,-9622.677246,1532.190996
3389.229935,222.061783,-11103.089130,-766.095498
3389.230262,2072.576638,-12583.501014,-3217.601092
3389.230590,888.247130,-10140.821405,-1762.019645
3389.230918,74.020594,-8512.368333,459.657299
3389.231245,814.226536,-10362.883188,842.705048
3389.231573,1924.535449,-9918.759623,-383.047749
3389.231901,1258.350101,-6513.812290,-1225.752797
3389.232228,-814.226536,-6883.915261,383.047749
3389.232556,-1258.350101,-9474.636058,1378.971896
3389.232884,666.185348,-10732.986159,0.000000
3389.233211,0.000000,-12435.459826,-919.314598
3389.233539,0.000000,-12065.356855,-1532.190996
3389.233866,0.000000,-11029.068536,-3294.210641
3389.234194,370.102971,-10510.924376,-2451.505594
3389.234522,814.226536,-10955.047942,-1762.019645
3389.234849,1036.288319,-10807.006753,-306.438199
3389.235177,1554.432478,-8808.450710,1302.362347
3389.235505,1332.370696,-8290.306550,1455.581446
3389.235832,370.102971,-9178.553681,1991.848295
3389.236160,-962.267725,-8586.388927,383.047749
3389.236488,-1554.432478,-9326.594869,-306.438199
3389.236815,-444.123565,-8660.409521,-2145.067394
3389.237143,888.247130,-8586.388927,-2604.724693
3389.237470,1998.556043,-10214.842000,-153.219100
3389.237798,2886.803174,-11399.171507,2374.896044
3389.238126,2516.700203,-11473.192101,1991.848295
3389.238453,2220.617826,-9252.574275,76.609550
3389.238781,222.061783,-9474.636058,-459.657299
3389.239109,-1184.329507,-9548.656652,-612.876398
3389.239436,-1480.411884,-7920.203579,0.000000
3389.239764,-222.061783,-8808.450710,153.219100
3389.240092,666.185348,-8216.285956,0.000000
3389.240419,-740.205942,-8216.285956,2145.067394
3389.240747,-2738.761985,-7698.141797,2221.676944
3389.241075,-1554.432478,-8290.306550,-1532.190996
3389.241402,-1184.329507,-9844.739029,-2604.724693
3389.241730,148.041188,-9474.636058,-1915.238745
3389.242057,740.205942,-9918.759623,0.000000
3389.242385,518.144159,-12287.418637,2528.115143
3389.242713,2294.638420,-12139.377449,1685.410096
3389.243040,3627.009116,-10584.944971,-995.924147
3389.243368,74.020594,-9992.780217,-766.095498
3389.243696,-2368.659014,-9696.697840,-383.047749
3389.244023,-2664.741391,-6957.935855,-306.438199
3389.244351,-2072.576638,-6439.791695,-842.705048
3389.244679,-2368.659014,-9252.574275,536.266849
3389.245006,-370.102971,-10140.821405,1378.971896
3389.245334,1776.494261,-9400.615463,229.828649
3389.245662,2442.679609,-10584.944971,-919.314598
3389.245989,2812.782580,-12213.398043,-1455.581446
3389.246317,2220.617826,-10955.047942,-459.657299
3389.246645,1036.288319,-8586.388927,1762.019645
3389.246972,1036.288319,-6735.874072,1838.629195
3389.247300,0.000000,-8808.450710,995.924147
3389.247627,-1702.473667,-11843.295072,229.828649
3389.247955,592.164754,-11843.295072,-1915.238745
3389.248283,2072.576638,-10584.944971,-3600.648841
3389.248610,1036.288319,-9326.594869,-1532.190996
3389.248938,1036.288319,-11177.109724,919.314598
3389.249266,592.164754,-9844.739029,1838.629195
3389.249593,962.267725,-7031.956449,0.000000
3389.249921,0.000000,-6069.688724,-306.438199
3389.250249,0.000000,-9622.677246,-612.876398
3389.250576,-814.226536,-9770.718434,612.876398
3389.250904,148.041188,-9178.553681,306.438199
3389.251232,666.185348,-10658.965565,-995.924147
3389.251559,518.144159,-11695.253884,-1378.971896
3389.251887,592.164754,-12509.480420,-766.095498
3389.252215,666.185348,-8956.491898,-1838.629195
3389.252542,0.000000,-9474.636058,-919.314598
3389.252870,222.061783,-9178.553681,-306.438199
3389.253197,222.061783,-9696.697840,459.657299
3389.253525,-888.247130,-10288.862594,2374.896044
3389.253853,0.000000,-8216.285956,459.657299
3389.254180,0.000000,-8364.327145,-306.438199
3389.254508,1184.329507,-9844.739029,-1762.019645
3389.254836,1406.391290,-10066.800811,-1915.238745
3389.255163,518.144159,-8364.327145,306.438199
3389.255491,1184.329507,-8586.388927,1455.581446
3389.255819,1924.535449,-11547.212695,229.828649
3389.256146,2072.576638,-11917.315666,0.000000
3389.256474,666.185348,-9030.512492,-1302.362347
3389.256802,296.082377,-10362.883188,-689.485948
3389.257129,518.144159,-11029.068536,-1302.362347
3389.257457,1998.556043,-10510.924376,-766.095498
3389.257784,518.144159,-9474.636058,995.924147
3389.258112,-1036.288319,-6883.915261,1608.800546
3389.258440,-370.102971,-7476.080014,689.485948
3389.258767,444.123565,-10436.903782,-1455.581446
3389.259095,-592.164754,-10288.862594,-306.438199
3389.259423,-148.041188,-8216.285956,-153.219100
3389.259750,0.000000,-8290.306550,0.000000
3389.260078,-962.267725,-11621.233289,995.924147
3389.260406,-296.082377,-13471.748144,0.000000
3389.260733,-1480.411884,-10436.903782,-1838.629195
3389.261061,-888.247130,-8882.471304,-919.314598
3389.261389,0.000000,-8660.409521,-1455.581446
3389.261716,0.000000,-10140.821405,-612.876398
3389.262044,-1406.391290,-10288.862594,3600.648841
3389.262372,-1184.329507,-7328.038826,1455.581446
3389.262699,0.000000,-8438.347739,-1532.190996
3389.263027,-370.102971,-9918.759623,-1762.019645
3389.263354,-1480.411884,-9770.718434,-766.095498
3389.263682,-222.061783,-7179.997637,-229.828649
3389.264010,222.061783,-8216.285956,-306.438199
3389.264337,0.000000,-10732.986159,306.438199
3389.264665,444.123565,-12065.356855,1455.581446
3389.264993,1850.514855,-10288.862594,229.828649
3389.265320,1702.473667,-9844.739029,-766.095498
3389.265648,1110.308913,-10732.986159,-229.828649
3389.265976,2442.679609,-8956.491898,-1225.752797
3389.266303,296.082377,-8438.347739,-306.438199
3389.266631,-1332.370696,-8512.368333,1532.190996
3389.266959,-2146.597232,-9104.533087,612.876398
3389.267286,-222.061783,-10955.047942,-536.266849
3389.267614,1184.329507,-10362.883188,-1302.362347
3389.267942,1184.329507,-9474.636058,-1225.752797
3389.268269,1036.288319,-10658.965565,0.000000
3389.268597,2368.659014,-10214.842000,-383.047749
3389.268924,2072.576638,-11251.130318,0.000000
3389.269252,-296.082377,-8956.491898,229.828649
3389.269580,-2368.659014,-7772.162391,-306.438199
3389.269907,-1480.411884,-8882.471304,-919.314598
3389.270235,962.267725,-9326.594869,-1225.752797
3389.270563,1406.391290,-10955.047942,1302.362347
3389.270890,1110.308913,-11325.150913,1149.143247
3389.271218,2368.659014,-10584.944971,-383.047749
3389.271546,1554.432478,-9918.759623,-2298.286494
3389.271873,222.061783,-9918.759623,-1915.238745
3389.272201,-592.164754,-7105.977043,-153.219100
3389.272529,296.082377,-6809.894666,689.485948
3389.272856,962.267725,-8734.430116,2145.067394
3389.273184,2368.659014,-11843.295072,2451.505594
3389.273511,1702.473667,-11177.109724,1838.629195
3389.273839,1406.391290,-9844.739029,-919.314598
3389.274167,444.123565,-9770.718434,-3294.210641
3389.274494,0.000000,-10362.883188,-3907.087040
3389.274822,-1184.329507,-9918.759623,-995.924147
3389.275150,814.226536,-9104.533087,842.705048
3389.275477,1998.556043,-9474.636058,1455.581446
3389.275805,1702.473667,-9474.636058,1762.019645
3389.276133,222.061783,-9844.739029,2298.286494
3389.276460,-962.267725,-9400.615463,153.219100
3389.276788,-222.061783,-8660.409521,-1991.848295
3389.277116,-296.082377,-8364.327145,-2451.505594
3389.277443,74.020594,-10288.862594,-1608.800546
3389.277771,222.061783,-10288.862594,1378.971896
3389.278099,518.144159,-10066.800811,2451.505594
3389.278426,-666.185348,-10732.986159,689.485948
3389.278754,-1406.391290,-11547.212695,-2604.724693
3389.279081,-1998.556043,-10955.047942,-2374.896044
3389.279409,-1628.453072,-8882.471304,-1838.629195
3389.279737,-666.185348,-8512.368333,0.000000
3389.280064,-222.061783,-10140.821405,1302.362347
3389.280392,962.267725,-10436.903782,842.705048
3389.280720,1406.391290,-8586.388927,459.657299
3389.281047,148.041188,-8808.450710,76.609550
3389.281375,-1258.350101,-8660.409521,-306.438199
3389.281703,-1258.350101,-8586.388927,-1072.533697
3389.282030,-2146.597232,-8660.409521,-1378.971896
3389.282358,-2738.761985,-9104.533087,459.657299
3389.282686,-296.082377,-9770.718434,919.314598
3389.283013,2220.617826,-11547.212695,-383.047749
3389.283341,1924.535449,-13175.665768,76.609550
3389.283669,1702.473667,-9844.739029,919.314598
3389.283996,1776.494261,-6883.915261,229.828649
3389.284324,222.061783,-6513.812290,-229.828649
3389.284651,-2368.659014,-9474.636058,1072.533697
3389.284979,-2886.803174,-8956.491898,1225.752797
3389.285307,222.061783,-7624.121203,-1378.971896
3389.285634,1480.411884,-10658.965565,-1608.800546
3389.285962,1924.535449,-12213.398043,-1685.410096
3389.286290,814.226536,-11843.295072,153.219100
3389.286617,740.205942,-9326.594869,76.609550
3389.286945,1036.288319,-7402.059420,-1608.800546
3389.287273,-148.041188,-8290.306550,-1302.362347
3389.287600,-1258.350101,-9548.656652,0.000000
3389.287928,-814.226536,-8882.471304,1149.143247
3389.288256,1628.453072,-10214.842000,842.705048
3389.288583,3256.906145,-11621.233289,-153.219100
3389.288911,1998.556043,-13989.892304,612.876398
3389.289238,888.247130,-10584.944971,-689.485948
3389.289566,666.185348,-7846.182985,-2451.505594
3389.289894,296.082377,-9030.512492,-2374.896044
3389.290221,888.247130,-9030.512492,-1532.190996
3389.290549,592.164754,-8956.491898,1838.629195
3389.290877,1258.350101,-8882.471304,3983.696590
3389.291204,2886.803174,-10584.944971,1915.238745
3389.291532,3034.844362,-11177.109724,-689.485948
3389.291860,1036.288319,-11917.315666,-1991.848295
3389.292187,-1406.391290,-9548.656652,-2221.676944
3389.292515,-1258.350101,-8068.244768,-2145.067394
3389.292843,-148.041188,-8364.327145,-459.657299
3389.293170,1406.391290,-9548.656652,536.266849
3389.293498,0.000000,-9104.533087,3140.991542
3389.293826,666.185348,-8660.409521,2221.676944
3389.294153,1184.329507,-8586.388927,-919.314598
3389.294481,296.082377,-10807.006753,-1608.800546
3389.294808,-296.082377,-9844.739029,-1302.362347
3389.295136,-1110.308913,-7328.038826,76.609550
3389.295464,-1480.411884,-6883.915261,1685.410096
3389.295791,0.000000,-9252.574275,919.314598
3389.296119,-592.164754,-12139.377449,459.657299
3389.296447,-1332.370696,-10807.006753,76.609550
3389.296774,-740.205942,-8438.347739,-1762.019645
3389.297102,-370.102971,-9326.594869,-3140.991542
3389.297430,222.061783,-12435.459826,-1302.362347
3389.297757,-740.205942,-11769.274478,536.266849
3389.298085,-370.102971,-8142.265362,536.266849
3389.298413,888.247130,-8438.347739,383.047749
3389.298740,666.185348,-10362.883188,-229.828649
3389.299068,-666.185348,-10658.965565,306.438199
3389.299396,-1702.473667,-7550.100608,306.438199
3389.299723,-740.205942,-7031.956449,-766.095498
3389.300051,-740.205942,-9918.759623,-766.095498
3389.300378,-666.185348,-11325.150913,-153.219100
3389.300706,0.000000,-9844.739029,-536.266849
3389.301034,592.164754,-10881.027347,-612.876398
3389.301361,1406.391290,-10584.944971,-1072.533697
3389.301689,2072.576638,-8364.327145,-995.924147
3389.302017,0.000000,-9178.553681,1225.752797
3389.302344,-1258.350101,-8364.327145,2068.457845
3389.302672,814.226536,-8142.265362,153.219100
3389.303000,1480.411884,-9400.615463,-842.705048
3389.303327,1258.350101,-10881.027347,-766.095498
3389.303655,0.000000,-9770.718434,-459.657299
3389.303983,888.247130,-9770.718434,-383.047749
3389.304310,1332.370696,-9918.759623,-536.266849
3389.304638,666.185348,-10066.800811,-1302.362347
3389.304965,-1110.308913,-8438.347739,-153.219100
3389.305293,-1554.432478,-7105.977043,-459.657299
3389.305621,1184.329507,-9104.533087,-766.095498
3389.305948,2146.597232,-11103.089130,-536.266849
3389.306276,2590.720797,-12583.501014,1378.971896
3389.306604,2294.638420,-10658.965565,1225.752797
3389.306931,2146.597232,-9178.553681,-306.438199
3389.307259,1702.473667,-8660.409521,-1991.848295
3389.307587,-444.123565,-9400.615463,-1225.752797
3389.307914,-444.123565,-7920.203579,-229.828649
3389.308242,1036.288319,-8364.327145,-459.657299
3389.308570,2146.597232,-10955.047942,76.609550
3389.308897,3182.885551,-11769.274478,919.314598
3389.309225,2220.617826,-10584.944971,1302.362347
3389.309553,1036.288319,-10066.800811,-383.047749
3389.309880,-888.247130,-9548.656652,-1455.581446
3389.310208,148.041188,-8512.368333,-2298.286494
3389.310535,-666.185348,-9696.697840,-459.657299
3389.310863,0.000000,-9474.636058,1378.971896
3389.311191,814.226536,-8586.388927,1302.362347
3389.311518,370.102971,-9474.636058,766.095498
3389.311846,0.000000,-10584.944971,0.000000
3389.312174,-370.102971,-8438.347739,-1838.629195
3389.312501,-2146.597232,-9548.656652,-1072.533697
3389.312829,-814.226536,-9548.656652,-1072.533697
3389.313157,1332.370696,-8586.388927,-383.047749
3389.313484,0.000000,-10807.006753,2221.676944
3389.313812,-1406.391290,-10658.965565,2528.115143
3389.314140,-592.164754,-9844.739029,-842.705048
3389.314467,-1184.329507,-8142.265362,-3524.039291
3389.314795,-518.144159,-9400.615463,-2834.553343
3389.315122,-962.267725,-10140.821405,-306.438199
3389.315450,-1184.329507,-11251.130318,2374.896044
3389.315778,296.082377,-9326.594869,995.924147
3389.316105,1628.453072,-11177.109724,-766.095498
3389.316433,-666.185348,-10732.986159,-1378.971896
3389.316761,-1184.329507,-7328.038826,0.000000
3389.317088,-888.247130,-6735.874072,-689.485948
3389.317416,0.000000,-9696.697840,-689.485948
3389.317744,-592.164754,-10584.944971,1302.362347
3389.318071,-296.082377,-9104.533087,2145.067394
3389.318399,592.164754,-9178.553681,612.876398
3389.318727,1850.514855,-10658.965565,-1302.362347
3389.319054,740.205942,-11621.233289,-1685.410096
3389.319382,-740.205942,-8956.491898,-995.924147
3389.319710,370.102971,-5921.647536,-995.924147
3389.320037,222.061783,-9252.574275,-153.219100
3389.320365,-370.102971,-10955.047942,1302.362347
3389.320692,814.226536,-10140.821405,1072.533697
3389.321020,1850.514855,-10436.903782,0.000000
3389.321348,2590.720797,-10288.862594,-1225.752797
3389.321675,2960.823768,-10510.924376,-1302.362347
3389.322003,518.144159,-10362.883188,766.095498
3389.322331,0.000000,-8068.244768,689.485948
3389.322658,296.082377,-8586.388927,-383.047749
3389.322986,-296.082377,-9622.677246,-1302.362347
3389.323314,-740.205942,-9622.677246,-995.924147
3389.323641,-296.082377,-9770.718434,536.266849
3389.323969,888.247130,-9918.759623,995.924147
3389.324297,1480.411884,-9844.739029,536.266849
3389.324624,3552.988522,-11843.295072,-689.485948
3389.324952,1184.329507,-11547.212695,-459.657299
3389.325280,148.041188,-9844.739029,0.000000
3389.325607,740.205942,-7772.162391,-1455.581446
3389.325935,1110.308913,-8438.347739,-1915.238745
3389.326262,1258.350101,-10584.944971,612.876398
3389.326590,962.267725,-10140.821405,1838.629195
3389.326918,962.267725,-10362.883188,1072.533697
3389.327245,2072.576638,-11029.068536,-1072.533697
3389.327573,1480.411884,-12509.480420,-1915.238745
3389.327901,-666.185348,-9252.574275,-995.924147
3389.328228,0.000000,-6587.832884,-306.438199
3389.328556,148.041188,-8956.491898,-689.485948
3389.328884,592.164754,-11103.089130,612.876398
3389.329211,666.185348,-9696.697840,1608.800546
3389.329539,0.000000,-8216.285956,1685.410096
3389.329867,-296.082377,-7698.141797,536.266849
3389.330194,-740.205942,-8512.368333,-842.705048
3389.330522,-962.267725,-10436.903782,-536.266849
3389.330849,-1036.288319,-8586.388927,0.000000
3389.331177,1406.391290,-9696.697840,-1762.019645
3389.331505,222.061783,-9622.677246,-459.657299
3389.331832,-222.061783,-10658.965565,1762.019645
3389.332160,-888.247130,-10436.903782,919.314598
3389.332488,-1850.514855,-11547.212695,0.000000
3389.332815,-2960.823768,-8068.244768,-689.485948
3389.333143,0.000000,-7624.121203,-2374.896044
3389.333471,-1332.370696,-9474.636058,766.095498
3389.333798,-222.061783,-9992.780217,1838.629195
3389.334126,296.082377,-8734.430116,-306.438199
3389.334454,0.000000,-10807.006753,-1532.190996
3389.334781,518.144159,-11251.130318,-2068.457845
3389.335109,0.000000,-8438.347739,-689.485948
3389.335437,-296.082377,-7920.203579,1302.362347
3389.335764,0.000000,-8808.450710,1532.190996
3389.336092,148.041188,-11177.109724,689.485948
3389.336419,370.102971,-10584.944971,76.609550
3389.336747,814.226536,-9030.512492,-1915.238745
3389.337075,1110.308913,-10584.944971,-2911.162892
3389.337402,74.020594,-10288.862594,0.000000
3389.337730,0.000000,-7994.224174,-306.438199
3389.338058,-1184.329507,-8364.327145,383.047749
3389.338385,-888.247130,-8364.327145,76.609550
3389.338713,0.000000,-9844.739029,306.438199
3389.339041,1406.391290,-12287.418637,306.438199
3389.339368,2960.823768,-11399.171507,-919.314598
3389.339696,3330.926739,-11399.171507,-1915.238745
3389.340024,1628.453072,-10510.924376,-842.705048
3389.340352,888.247130,-9770.718434,383.047749
3389.340679,1184.329507,-8364.327145,689.485948
3389.341007,-592.164754,-8808.450710,1149.143247
3389.341335,-1480.411884,-9104.533087,306.438199
3389.341663,296.082377,-10584.944971,-766.095498
3389.341990,0.000000,-9474.636058,-1302.362347
3389.342318,1110.308913,-10362.883188,-919.314598
3389.342646,1332.370696,-9696.697840,-612.876398
3389.342974,1776.494261,-10658.965565,-459.657299
3389.343301,1850.514855,-10140.821405,-689.485948
3389.343629,1184.329507,-9918.759623,0.000000
3389.343957,814.226536,-8290.306550,459.657299
3389.344285,1406.391290,-7846.182985,689.485948
3389.344612,1258.350101,-10955.047942,1762.019645
3389.344940,962.267725,-10140.821405,689.485948
3389.345268,666.185348,-9400.615463,-1072.533697
3389.345596,666.185348,-9770.718434,-2528.115143
3389.345923,148.041188,-10732.986159,-2681.334243
3389.346251,-444.123565,-10288.862594,-612.876398
3389.346579,-888.247130,-9622.677246,1225.752797
3389.346906,-1184.329507,-8438.347739,995.924147
3389.347234,74.020594,-8956.491898,1072.533697
3389.347562,0.000000,-9474.636058,459.657299
3389.347890,-518.144159,-8734.430116,766.095498
3389.348217,74.020594,-8512.368333,-766.095498
3389.348545,444.123565,-9622.677246,-2528.115143
3389.348873,0.000000,-10436.903782,-1838.629195
3389.349201,-370.102971,-10955.047942,459.657299
3389.349528,-1480.411884,-10955.047942,1302.362347
3389.349856,-592.164754,-10955.047942,-459.657299
3389.350184,0.000000,-11547.212695,-1762.019645
3389.350512,296.082377,-10658.965565,-1378.971896
3389.350839,0.000000,-9252.574275,76.609550
3389.351167,0.000000,-8882.471304,1532.190996
3389.351495,296.082377,-8734.430116,536.266849
3389.351823,74.020594,-8956.491898,-1225.752797
3389.352150,-1110.308913,-9548.656652,-842.705048
3389.352478,-2368.659014,-8734.430116,-459.657299
3389.352806,-1480.411884,-7402.059420,0.000000
3389.353134,0.000000,-9622.677246,-306.438199
3389.353461,148.041188,-11177.109724,842.705048
3389.353789,518.144159,-11029.068536,689.485948
3389.354117,2072.576638,-10881.027347,-459.657299
3389.354445,2368.659014,-11325.150913,-2221.676944
3389.354772,1406.391290,-11399.171507,-1608.800546
3389.355100,0.000000,-9104.533087,459.657299
3389.355428,-370.102971,-4885.359217,1455.581446
3389.355756,-814.226536,-6439.791695,2221.676944
3389.356083,-1406.391290,-10732.986159,1149.143247
3389.356411,-888.247130,-10066.800811,766.095498
3389.356739,1184.329507,-9178.553681,-919.314598
3389.357067,2442.679609,-9770.718434,-2451.505594
3389.357394,2590.720797,-11917.315666,-1608.800546
3389.357722,1998.556043,-10955.047942,-536.266849
3389.358050,962.267725,-9030.512492,536.266849
3389.358378,296.082377,-7920.203579,995.924147
3389.358705,592.164754,-10066.800811,766.095498
3389.359033,-1184.329507,-10288.862594,153.219100
3389.359361,-1258.350101,-8216.285956,-459.657299
3389.359688,74.020594,-8512.368333,-1685.410096
3389.360016,1258.350101,-10436.903782,-1762.019645
3389.360344,1702.473667,-11029.068536,-1455.581446
3389.360672,1480.411884,-11029.068536,-1225.752797
3389.360999,888.247130,-10288.862594,-76.609550
3389.361327,2146.597232,-10066.800811,153.219100
3389.361655,2442.679609,-10584.944971,153.219100
3389.361983,962.267725,-10658.965565,1838.629195
3389.362310,888.247130,-9548.656652,2298.286494
3389.362638,2442.679609,-9474.636058,-842.705048
3389.362966,2368.659014,-10732.986159,-3370.820191
3389.363294,666.185348,-11621.233289,-1838.629195
3389.363621,222.061783,-11103.089130,-612.876398
3389.363949,148.041188,-8882.471304,153.219100
3389.364277,0.000000,-8956.491898,689.485948
3389.364605,-370.102971,-10955.047942,229.828649
3389.364932,-1480.411884,-9400.615463,995.924147
3389.365260,-592.164754,-7994.224174,612.876398
3389.365588,296.082377,-7254.018232,-1149.143247
3389.365916,518.144159,-8586.388927,-995.924147
3389.366243,962.267725,-10658.965565,153.219100
3389.366571,-370.102971,-8068.244768,1455.581446
3389.366899,-1110.308913,-9104.533087,2068.457845
3389.367227,-1258.350101,-10362.883188,0.000000
3389.367554,-1480.411884,-13545.768739,-1608.800546
3389.367882,-1776.494261,-10732.986159,-2298.286494
3389.368210,0.000000,-9474.636058,-2681.334243
3389.368538,148.041188,-10584.944971,-689.485948
3389.368865,1480.411884,-11769.274478,1072.533697
3389.369193,444.123565,-9104.533087,1302.362347
3389.369521,-370.102971,-7624.121203,612.876398
3389.369849,-1554.432478,-8068.244768,0.000000
3389.370176,-740.205942,-9548.656652,-1532.190996
3389.370504,-2072.576638,-8216.285956,-153.219100
3389.370832,-1332.370696,-6291.750507,76.609550
3389.371160,-370.102971,-9696.697840,0.000000
3389.371487,1628.453072,-11843.295072,153.219100
3389.371815,3997.112087,-12435.459826,-2221.676944
3389.372143,2146.597232,-12435.459826,-689.485948
3389.372470,740.205942,-10881.027347,153.219100
3389.372798,1628.453072,-7254.018232,-459.657299
3389.373126,1110.308913,-7105.977043,-459.657299
3389.373454,-2072.576638,-8956.491898,1532.190996
3389.373781,-2442.679609,-9326.594869,2145.067394
3389.374109,148.041188,-9252.574275,-689.485948
3389.374437,2072.576638,-9918.759623,-2834.553343
3389.374765,1332.370696,-11473.192101,-2374.896044
3389.375092,518.144159,-10658.965565,459.657299
3389.375420,2220.617826,-9622.677246,612.876398
3389.375748,3182.885551,-9548.656652,-229.828649
3389.376076,2442.679609,-9770.718434,459.657299
3389.376403,0.000000,-9622.677246,1915.238745
3389.376731,74.020594,-9474.636058,1455.581446
3389.377059,518.144159,-9918.759623,-536.266849
3389.377387,444.123565,-10436.903782,-1378.971896
3389.377714,0.000000,-10436.903782,-383.047749
3389.378042,0.000000,-9178.553681,-306.438199
3389.378370,814.226536,-8290.306550,-1378.971896
3389.378698,296.082377,-8882.471304,-919.314598
3389.379025,-666.185348,-9178.553681,76.609550
3389.379353,74.020594,-9474.636058,0.000000
3389.379681,962.267725,-10066.800811,306.438199
3389.380009,1332.370696,-9326.594869,383.047749
3389.380336,2368.659014,-10955.047942,0.000000
3389.380664,1924.535449,-11399.171507,-229.828649
3389.380992,1776.494261,-9400.615463,-612.876398
3389.381320,740.205942,-8364.327145,-306.438199
3389.381647,814.226536,-9548.656652,766.095498
3389.381975,1480.411884,-11029.068536,536.266849
3389.382303,-296.082377,-10362.883188,536.266849
3389.382631,-1702.473667,-9400.615463,76.609550
3389.382958,-740.205942,-8364.327145,-2145.067394
3389.383286,0.000000,-11251.130318,-2374.896044
3389.383614,-1702.473667,-9918.759623,0.000000
3389.383942,0.000000,-8068.244768,-383.047749
3389.384269,296.082377,-7920.203579,1149.143247
3389.384597,592.164754,-9770.718434,1149.143247
3389.384925,-1554.432478,-11029.068536,766.095498
3389.385252,-1480.411884,-11473.192101,-919.314598
3389.385580,0.000000,-8438.347739,-3524.039291
3389.385908,0.000000,-9326.594869,-2834.553343
3389.386236,148.041188,-12731.542202,536.266849
3389.386563,74.020594,-11325.150913,2451.505594
3389.386891,592.164754,-8660.409521,1302.362347
3389.387219,0.000000,-7698.141797,-919.314598
3389.387547,-1258.350101,-9918.759623,-995.924147
3389.387874,-2294.638420,-7772.162391,0.000000
3389.388202,-1110.308913,-5477.523971,-306.438199
3389.388530,-1924.535449,-7105.977043,0.000000
3389.388858,-296.082377,-11473.192101,919.314598
3389.389185,1628.453072,-13027.624579,536.266849
3389.389513,1406.391290,-11547.212695,76.609550
3389.389841,1554.432478,-11325.150913,-612.876398
3389.390169,2590.720797,-9252.574275,-1302.362347
3389.390496,2886.803174,-9030.512492,-1302.362347
3389.390824,222.061783,-7994.224174,536.266849
3389.391152,-1924.535449,-7476.080014,995.924147
3389.391480,-518.144159,-9696.697840,1149.143247
3389.391807,1332.370696,-12435.459826,-612.876398
3389.392135,1110.308913,-10807.006753,-1532.190996
3389.392463,1036.288319,-9474.636058,-1991.848295
3389.392791,1406.391290,-9104.533087,-612.876398
3389.393118,2590.720797,-9400.615463,-459.657299
3389.393446,2442.679609,-9696.697840,0.000000
3389.393774,0.000000,-9104.533087,306.438199
3389.394102,-296.082377,-9326.594869,0.000000
3389.394429,962.267725,-9918.759623,-919.314598
3389.394757,1258.350101,-11917.315666,-1072.533697
3389.395085,-518.144159,-10510.924376,1915.238745
3389.395413,814.226536,-9622.677246,1608.800546
3389.395740,1332.370696,-10288.862594,0.000000
3389.396068,1554.432478,-10807.006753,-2528.115143
3389.396396,-296.082377,-8290.306550,-2145.067394
3389.396724,-1850.514855,-6957.935855,0.000000
3389.397051,-296.082377,-7402.059420,0.000000
3389.397379,666.185348,-10362.883188,383.047749
3389.397707,296.082377,-11251.130318,2145.067394
3389.398034,1110.308913,-10658.965565,1225.752797
3389.398362,2072.576638,-10362.883188,-1302.362347
3389.398690,2442.679609,-10066.800811,-1378.971896
3389.399018,1332.370696,-9992.780217,383.047749
3389.399345,0.000000,-8364.327145,1225.752797
3389.399673,592.164754,-7846.182985,-229.828649
3389.400001,1110.308913,-9252.574275,76.609550
3389.400329,296.082377,-11695.253884,689.485948
3389.400656,-444.123565,-10510.924376,1225.752797
3389.400984,-1258.350101,-8882.471304,-383.047749
3389.401312,-1998.556043,-8438.347739,-1838.629195
3389.401640,-148.041188,-9844.739029,-3983.696590
3389.401967,-518.144159,-8734.430116,-842.705048
3389.402295,-1480.411884,-8882.471304,1532.190996
3389.402623,-1036.288319,-10658.965565,306.438199
3389.402951,-666.185348,-12435.459826,-1532.190996
3389.403278,370.102971,-10658.965565,-3140.991542
3389.403606,0.000000,-9548.656652,-1378.971896
3389.403934,0.000000,-11251.130318,2145.067394
3389.404262,1628.453072,-11177.109724,2068.457845
3389.404589,962.267725,-9770.718434,689.485948
3389.404917,0.000000,-8142.265362,-689.485948
3389.405245,-1998.556043,-7920.203579,-1225.752797
3389.405573,-2442.679609,-7698.141797,-1455.581446
3389.405900,-2146.597232,-7402.059420,-459.657299
3389.406228,-1628.453072,-8364.327145,-153.219100
3389.406556,-592.164754,-9918.759623,1455.581446
3389.406884,962.267725,-10362.883188,1762.019645
3389.407211,2516.700203,-10658.965565,153.219100
3389.407539,1850.514855,-11547.212695,-689.485948
3389.407867,1406.391290,-10658.965565,0.000000
3389.408195,1184.329507,-7179.997637,-689.485948
3389.408522,1184.329507,-6661.853478,0.000000
3389.408850,-1332.370696,-10288.862594,842.705048
3389.409178,-1184.329507,-11769.274478,1608.800546
3389.409506,-370.102971,-10732.986159,459.657299
3389.409833,1184.329507,-10066.800811,-1532.190996
3389.410161,1184.329507,-10214.842000,-2221.676944
3389.410489,1036.288319,-9104.533087,-536.266849
3389.410816,1924.535449,-8512.368333,612.876398
3389.411144,2146.597232,-8882.471304,459.657299
3389.411472,1258.350101,-9178.553681,842.705048
3389.411800,-370.102971,-9622.677246,459.657299
3389.412127,-222.061783,-10066.800811,-383.047749
3389.412455,592.164754,-10732.986159,-1378.971896
3389.412783,518.144159,-10732.986159,-306.438199
3389.413111,888.247130,-11473.192101,0.000000
3389.413438,1258.350101,-10362.883188,-306.438199
3389.413766,1332.370696,-11103.089130,-995.924147
3389.414094,592.164754,-9992.780217,-1302.362347
3389.414422,-518.144159,-7772.162391,-1532.190996
3389.414749,-1332.370696,-7476.080014,-536.266849
3389.415077,-1110.308913,-8142.265362,1072.533697
3389.415405,-370.102971,-9548.656652,1991.848295
3389.415733,1184.329507,-9474.636058,1225.752797
3389.416060,2442.679609,-10807.006753,-383.047749
3389.416388,2664.741391,-12065.356855,-919.314598
3389.416716,2738.761985,-10288.862594,-1608.800546
3389.417044,1406.391290,-7402.059420,0.000000
3389.417371,1110.308913,-8586.388927,612.876398
3389.417699,518.144159,-10658.965565,919.314598
3389.418027,0.000000,-10140.821405,1991.848295
3389.418355,0.000000,-8438.347739,1608.800546
3389.418682,-296.082377,-9104.533087,153.219100
3389.419010,296.082377,-10732.986159,-1455.581446
3389.419338,-1480.411884,-8660.409521,-1378.971896
3389.419666,-592.164754,-7105.977043,-2374.896044
3389.419993,-666.185348,-7402.059420,-2374.896044
3389.420321,-666.185348,-10955.047942,153.219100
3389.420649,-2442.679609,-12361.439231,919.314598
3389.420977,-1776.494261,-10658.965565,-459.657299
3389.421304,296.082377,-8660.409521,-2834.553343
3389.421632,1480.411884,-10510.924376,-1915.238745
3389.421960,518.144159,-12065.356855,1225.752797
3389.422288,1628.453072,-11103.089130,2298.286494
3389.422615,2220.617826,-7772.162391,76.609550
3389.422943,888.247130,-8586.388927,-1532.190996
3389.423271,-2294.638420,-10881.027347,-1072.533697
3389.423598,-2960.823768,-8734.430116,0.000000
3389.423926,-2072.576638,-6809.894666,0.000000
3389.424254,-1110.308913,-8290.306550,-766.095498
3389.424582,-1036.288319,-11177.109724,229.828649
3389.424909,74.020594,-12435.459826,1225.752797
3389.425237,2886.803174,-10362.883188,-459.657299
3389.425565,2294.638420,-10510.924376,-1225.752797
3389.425893,2368.659014,-10584.944971,-1072.533697
3389.426220,1702.473667,-8956.491898,536.266849
3389.426548,0.000000,-6957.935855,2298.286494
3389.426876,-1258.350101,-8290.306550,2221.676944
3389.427204,-2220.617826,-9474.636058,612.876398
3389.427531,-1258.350101,-10436.903782,-1378.971896
3389.427859,0.000000,-10066.800811,-2374.896044
3389.428187,1554.432478,-9474.636058,-1991.848295
3389.428515,2294.638420,-9030.512492,-689.485948
3389.428842,3034.844362,-10881.027347,383.047749
3389.429170,1998.556043,-10066.800811,1225.752797
3389.429498,1184.329507,-7179.997637,76.609550
3389.429826,-814.226536,-7328.038826,153.219100
3389.430153,-444.123565,-10658.965565,229.828649
3389.430481,740.205942,-11843.295072,-919.314598
3389.430809,0.000000,-10807.006753,-459.657299
3389.431137,1480.411884,-9918.759623,0.000000
3389.431464,2072.576638,-10214.842000,-1838.629195
3389.431792,962.267725,-11917.315666,-1991.848295
3389.432120,-1036.288319,-10436.903782,-919.314598
3389.432448,-2072.576638,-7476.080014,-612.876398
3389.432775,-888.247130,-7105.977043,-919.314598
3389.433103,1036.288319,-9548.656652,0.000000
3389.433431,1036.288319,-11843.295072,2374.896044
3389.433759,1554.432478,-9474.636058,2374.896044
3389.434086,2812.782580,-10214.842000,-1225.752797
3389.434414,2220.617826,-11547.212695,-2911.162892
3389.434742,2294.638420,-9844.739029,-3140.991542
3389.435070,-296.082377,-8142.265362,229.828649
3389.435397,0.000000,-8660.409521,2145.067394
3389.435725,888.247130,-9326.594869,536.266849
3389.436053,1406.391290,-12361.439231,229.828649
3389.436380,222.061783,-10732.986159,1225.752797
3389.436708,-296.082377,-9178.553681,306.438199
3389.437036,518.144159,-8142.265362,-1072.533697
3389.437364,592.164754,-8438.347739,-2298.286494
3389.437695,0.000000,-10140.821405,-1149.143247
3389.438022,-1184.329507,-8068.244768,1532.190996
3389.438350,-1332.370696,-8882.471304,1915.238745
3389.438678,-1628.453072,-11251.130318,919.314598
3389.439005,-962.267725,-11473.192101,-1915.238745
3389.439333,-1110.308913,-9622.677246,-2528.115143
3389.439661,-962.267725,-7698.141797,-1838.629195
3389.439988,2294.638420,-11029.068536,229.828649
3389.440316,3701.029710,-11917.315666,1302.362347
3389.440643,666.185348,-8956.491898,1838.629195
3389.440971,-962.267725,-7772.162391,2451.505594
3389.441299,-1850.514855,-7994.224174,0.000000
3389.441626,-1184.329507,-8586.388927,-1532.190996
3389.441954,-2220.617826,-7920.203579,-306.438199
3389.442282,-2664.741391,-8068.244768,229.828649
3389.442609,-740.205942,-10658.965565,0.000000
3389.442937,1702.473667,-11695.253884,-1378.971896
3389.443265,1998.556043,-11695.253884,-1302.362347
3389.443592,444.123565,-11325.150913,536.266849
3389.443920,962.267725,-9178.553681,612.876398
3389.444248,1702.473667,-7179.997637,459.657299
3389.444575,666.185348,-8216.285956,536.266849
3389.444903,-2294.638420,-10732.986159,766.095498
3389.445231,-1998.556043,-10955.047942,612.876398
3389.445558,-222.061783,-10436.903782,-995.924147
3389.445886,1258.350101,-11473.192101,-2911.162892
3389.446214,1628.453072,-11177.109724,-2374.896044
3389.446541,1110.308913,-10658.965565,0.000000
3389.446869,2072.576638,-10066.800811,153.219100
3389.447196,2516.700203,-10214.842000,76.609550
3389.447524,1702.473667,-9548.656652,229.828649
3389.447852,-888.247130,-8586.388927,689.485948
3389.448179,-592.164754,-9178.553681,229.828649
3389.448507,888.247130,-8216.285956,-689.485948
3389.448835,1184.329507,-10584.944971,383.047749
3389.449162,1628.453072,-11473.192101,1149.143247
3389.449490,1702.473667,-9918.759623,0.000000
3389.449818,-814.226536,-9030.512492,-919.314598
3389.450145,-1332.370696,-8808.450710,-2374.896044
3389.450473,-1924.535449,-8068.244768,-2374.896044
3389.450801,-2368.659014,-7402.059420,-306.438199
3389.451128,-592.164754,-9548.656652,612.876398
3389.451456,2590.720797,-11325.150913,1455.581446
3389.451784,4367.215058,-11621.233289,995.924147
3389.452111,3182.885551,-11843.295072,76.609550
3389.452439,814.226536,-10288.862594,-153.219100
3389.452767,222.061783,-6439.791695,-1532.190996
3389.453094,-814.226536,-7105.977043,-1225.752797
3389.453422,0.000000,-9252.574275,-153.219100
3389.453749,-148.041188,-9770.718434,612.876398
3389.454077,1332.370696,-10658.965565,995.924147
3389.454405,2738.761985,-12583.501014,153.219100
3389.454732,2442.679609,-12139.377449,-153.219100
3389.455060,666.185348,-8956.491898,-536.266849
3389.455388,-2220.617826,-6809.894666,-1378.971896
3389.455715,-296.082377,-8734.430116,-1685.410096
3389.456043,666.185348,-10881.027347,-1762.019645
3389.456371,-592.164754,-10066.800811,1532.190996
3389.456698,-1480.411884,-9992.780217,2528.115143
3389.457026,-1702.473667,-9770.718434,-1225.752797
3389.457354,74.020594,-10288.862594,-4443.353888
3389.457681,1480.411884,-11695.253884,-3370.820191
3389.458009,666.185348,-11547.212695,-229.828649
3389.458337,1110.308913,-9178.553681,2145.067394
3389.458664,2220.617826,-8882.471304,2298.286494
3389.458992,2220.617826,-10140.821405,766.095498
3389.459320,-370.102971,-9770.718434,1532.190996
3389.459647,-1850.514855,-7254.018232,536.266849
3389.459975,-888.247130,-6143.709319,-689.485948
3389.460302,-962.267725,-8586.388927,-1225.752797
3389.460630,-740.205942,-9992.780217,-766.095498
3389.460958,-814.226536,-10510.924376,1149.143247
3389.461285,592.164754,-9918.759623,153.219100
3389.461613,2442.679609,-11251.130318,-919.314598
3389.461941,2072.576638,-11547.212695,-229.828649
3389.462268,1258.350101,-7994.224174,1378.971896
3389.462596,-444.123565,-5477.523971,1302.362347
3389.462924,-962.267725,-8586.388927,306.438199
3389.463251,-592.164754,-11029.068536,-536.266849
3389.463579,-518.144159,-10955.047942,-306.438199
3389.463907,74.020594,-8808.450710,0.000000
3389.464234,222.061783,-9326.594869,-1685.410096
3389.464562,1776.494261,-11843.295072,-1762.019645
3389.464890,888.247130,-11103.089130,-1225.752797
3389.465217,296.082377,-9104.533087,0.000000
3389.465545,2072.576638,-8956.491898,-229.828649
3389.465873,2072.576638,-11251.130318,-536.266849
3389.466200,444.123565,-11769.274478,689.485948
3389.466528,-518.144159,-10510.924376,1072.533697
3389.466855,0.000000,-8586.388927,0.000000
3389.467183,148.041188,-9178.553681,-383.047749
3389.467511,-592.164754,-11029.068536,-995.924147
3389.467838,-1850.514855,-10881.027347,-1532.190996
3389.468166,-2442.679609,-8216.285956,-1608.800546
3389.468494,-740.205942,-7328.038826,-1915.238745
3389.468821,74.020594,-9844.739029,-1838.629195
3389.469149,518.144159,-11917.315666,995.924147
3389.469477,1702.473667,-10807.006753,1991.848295
3389.469804,2960.823768,-10362.883188,842.705048
3389.470132,3997.112087,-10214.842000,0.000000
3389.470460,2886.803174,-10066.800811,-995.924147
3389.470787,518.144159,-8142.265362,842.705048
3389.471115,-666.185348,-7550.100608,1302.362347
3389.471443,222.061783,-8068.244768,0.000000
3389.471770,74.020594,-9400.615463,-1455.581446
3389.472098,-148.041188,-10584.944971,0.000000
3389.472426,222.061783,-11547.212695,229.828649
3389.472753,0.000000,-9844.739029,229.828649
3389.473081,592.164754,-9326.594869,-383.047749
3389.473408,-666.185348,-9696.697840,-1455.581446
3389.473736,222.061783,-8364.327145,-1532.190996
3389.474064,296.082377,-7179.997637,0.000000
3389.474391,370.102971,-9400.615463,2068.457845
3389.474719,-1258.350101,-11473.192101,1149.143247
3389.475047,-1110.308913,-10658.965565,-1685.410096
3389.475374,-370.102971,-9178.553681,-3447.429741
3389.475702,444.123565,-9400.615463,-1838.629195
3389.476030,1998.556043,-12509.480420,612.876398
3389.476357,1924.535449,-11473.192101,1225.752797
3389.476685,962.267725,-9030.512492,229.828649
3389.477013,814.226536,-9030.512492,-766.095498
3389.477340,814.226536,-8956.491898,-995.924147
3389.477668,74.020594,-7698.141797,459.657299
3389.477996,-592.164754,-7920.203579,1225.752797
3389.478323,-740.205942,-9400.615463,689.485948
3389.478651,-296.082377,-10140.821405,689.485948
3389.478979,1702.473667,-11473.192101,153.219100
3389.479306,1406.391290,-10732.986159,-229.828649
3389.479634,962.267725,-9770.718434,0.000000
3389.479961,1554.432478,-8586.388927,-612.876398
3389.480289,740.205942,-7772.162391,-1302.362347
3389.480617,-1036.288319,-9326.594869,0.000000
3389.480944,-2072.576638,-9844.739029,995.924147
3389.481272,-666.185348,-9548.656652,1608.800546
3389.481600,1332.370696,-10214.842000,842.705048
3389.481927,2516.700203,-11251.130318,-1302.362347
3389.482255,814.226536,-9992.780217,0.000000
3389.482583,1332.370696,-9400.615463,-689.485948
3389.482910,2146.597232,-8438.347739,-2068.457845
3389.483238,888.247130,-9844.739029,-1149.143247
3389.483566,-1702.473667,-10584.944971,383.047749
3389.483893,-666.185348,-10214.842000,76.609550
3389.484221,0.000000,-8734.430116,-1302.362347
3389.484549,1628.453072,-10807.006753,-306.438199
3389.484876,444.123565,-10658.965565,1532.190996
3389.485204,0.000000,-8808.450710,1608.800546
3389.485532,-296.082377,-8512.368333,-1378.971896
3389.485859,-1184.329507,-8438.347739,-2834.553343
3389.486187,-2960.823768,-7402.059420,-2528.115143
3389.486514,-3404.947333,-8882.471304,-612.876398
3389.486842,-1258.350101,-10955.047942,536.266849
3389.487170,1702.473667,-11547.212695,306.438199
3389.487497,3923.091493,-13027.624579,1072.533697
3389.487825,2590.720797,-12805.562797,919.314598
3389.488153,1628.453072,-10658.965565,0.000000
3389.488480,962.267725,-6513.812290,-1225.752797
3389.488808,222.061783,-5625.565159,-536.266849
3389.489136,222.061783,-9770.718434,-536.266849
3389.489463,-444.123565,-10214.842000,842.705048
3389.489791,0.000000,-9252.574275,1685.410096
3389.490119,814.226536,-9844.739029,1072.533697
3389.490446,2368.659014,-12953.603985,-842.705048
3389.490774,888.247130,-9844.739029,-689.485948
3389.491102,-888.247130,-6587.832884,-1072.533697
3389.491429,-740.205942,-8216.285956,-2374.896044
3389.491757,0.000000,-10362.883188,-2298.286494
3389.492084,888.247130,-11769.274478,306.438199
3389.492412,-592.164754,-10510.924376,2451.505594
3389.492740,666.185348,-9252.574275,1225.752797
3389.493067,2146.597232,-9030.512492,0.000000
3389.493395,592.164754,-10881.027347,0.000000
3389.493723,-1184.329507,-10584.944971,1225.752797
3389.494050,-370.102971,-7846.182985,-995.924147
3389.494378,222.061783,-6291.750507,-2987.772442
3389.494706,-296.082377,-9844.739029,-1991.848295
3389.495033,-222.061783,-11991.336260,229.828649
3389.495361,296.082377,-10140.821405,766.095498
3389.495689,2072.576638,-8882.471304,0.000000
3389.496016,814.226536,-11251.130318,536.266849
3389.496344,592.164754,-11325.150913,0.000000
3389.496672,518.144159,-7624.121203,229.828649
3389.496999,-592.164754,-7105.977043,0.000000
3389.497327,-666.185348,-9178.553681,-2068.457845
3389.497655,0.000000,-11695.253884,-2298.286494
3389.497982,222.061783,-11547.212695,-383.047749
3389.498310,-222.061783,-9178.553681,76.609550
3389.498637,74.020594,-10066.800811,536.266849
3389.498965,-296.082377,-10732.986159,0.000000
3389.499293,-370.102971,-9030.512492,-459.657299
3389.499620,296.082377,-6957.935855,-536.266849
3389.499948,1850.514855,-7031.956449,-689.485948
3389.500276,1850.514855,-10881.027347,842.705048
3389.500603,1850.514855,-11621.233289,995.924147
3389.500931,592.164754,-11029.068536,-306.438199
3389.501259,-222.061783,-11917.315666,-459.657299
3389.501586,2442.679609,-11103.089130,-2068.457845
3389.501914,962.267725,-10362.883188,-1072.533697
3389.502242,-740.205942,-9696.697840,1838.629195
3389.502569,-148.041188,-8290.306550,153.219100
3389.502897,-444.123565,-8068.244768,689.485948
3389.503225,-1258.350101,-8216.285956,-1302.362347
3389.503552,-2886.803174,-8512.368333,-1608.800546
3389.503880,-3701.029710,-7550.100608,-459.657299
3389.504208,-666.185348,-7476.080014,-995.924147
3389.504535,962.267725,-11325.150913,0.000000
3389.504863,2072.576638,-12139.377449,1225.752797
3389.505190,2960.823768,-10436.903782,919.314598
3389.505518,2442.679609,-9696.697840,1302.362347
3389.505846,3997.112087,-11103.089130,-1302.362347
3389.506173,1776.494261,-10140.821405,-2221.676944
3389.506501,-1406.391290,-8956.491898,459.657299
3389.506829,-1850.514855,-7846.182985,459.657299
3389.507156,962.267725,-9918.759623,-459.657299
3389.507484,666.185348,-10955.047942,306.438199
3389.507812,296.082377,-10584.944971,1072.533697
3389.508139,74.020594,-10584.944971,76.609550
3389.508467,2738.761985,-9252.574275,-1915.238745
3389.508795,1850.514855,-9030.512492,-1991.848295
3389.509122,-1258.350101,-9770.718434,536.266849
3389.509450,-1406.391290,-8734.430116,0.000000
3389.509778,-888.247130,-9326.594869,-306.438199
3389.510105,0.000000,-10732.986159,76.609550
3389.510433,0.000000,-11399.171507,153.219100
3389.510761,148.041188,-9030.512492,919.314598
3389.511088,1406.391290,-8438.347739,0.000000
3389.511416,1924.535449,-10066.800811,-153.219100
3389.511743,3775.050304,-10288.862594,-689.485948
3389.512071,592.164754,-8290.306550,766.095498
3389.512399,-1850.514855,-8438.347739,1149.143247
3389.512726,-2812.782580,-9252.574275,536.266849
3389.513054,-1184.329507,-9548.656652,-2374.896044
3389.513382,0.000000,-8586.388927,-2451.505594
3389.513709,0.000000,-9918.759623,-383.047749
3389.514037,1480.411884,-11029.068536,459.657299
3389.514365,3627.009116,-10584.944971,1225.752797
3389.514692,2664.741391,-11029.068536,-383.047749
3389.515020,-444.123565,-9178.553681,0.000000
3389.515348,-2220.617826,-8216.285956,0.000000
3389.515675,-888.247130,-8956.491898,0.000000
3389.516003,-888.247130,-10510.924376,0.000000
3389.516331,-518.144159,-10436.903782,229.828649
3389.516658,-740.205942,-8808.450710,0.000000
3389.516986,222.061783,-9400.615463,-306.438199
3389.517314,1036.288319,-10140.821405,-842.705048
3389.517641,814.226536,-8956.491898,-1302.362347
3389.517969,-1924.535449,-9252.574275,766.095498
3389.518296,74.020594,-7846.182985,0.000000
3389.518624,2516.700203,-8438.347739,-689.485948
3389.518952,1776.494261,-12139.377449,995.924147
3389.519279,296.082377,-12213.398043,1762.019645
3389.519607,1184.329507,-11547.212695,-919.314598
3389.519935,962.267725,-9326.594869,-1762.019645
3389.520262,1406.391290,-9622.677246,-2374.896044
3389.520590,-962.267725,-9844.739029,306.438199
3389.520918,-2294.638420,-9622.677246,1225.752797
3389.521245,-1036.288319,-9252.574275,-842.705048
3389.521573,-1480.411884,-8068.244768,-1838.629195
3389.521901,-2220.617826,-7550.100608,-1915.238745
3389.522228,-962.267725,-9252.574275,0.000000
3389.522556,888.247130,-10584.944971,229.828649
3389.522884,3256.906145,-11177.109724,76.609550
3389.523211,4737.318029,-11695.253884,0.000000
3389.523539,3775.050304,-11177.109724,1378.971896
3389.523867,1702.473667,-9622.677246,1455.581446
3389.524194,592.164754,-8290.306550,842.705048
3389.524522,-888.247130,-8068.244768,0.000000
3389.524849,-814.226536,-8882.471304,-1302.362347
3389.525177,-1184.329507,-9770.718434,-306.438199
3389.525505,518.144159,-9696.697840,-306.438199
3389.525832,2368.659014,-12213.398043,306.438199
3389.526160,3034.844362,-13101.645173,229.828649
3389.526488,592.164754,-9622.677246,-612.876398
3389.526815,-2146.597232,-6957.935855,-1455.581446
3389.527143,-1702.473667,-7105.977043,-1685.410096
3389.527471,222.061783,-9326.594869,-1378.971896
3389.527798,370.102971,-9548.656652,689.485948
3389.528126,148.041188,-10362.883188,1608.800546
3389.528454,888.247130,-9918.759623,153.219100
3389.528781,1628.453072,-9992.780217,-1225.752797
3389.529109,1036.288319,-11251.130318,-766.095498
3389.529437,0.000000,-10288.862594,306.438199
3389.529764,222.061783,-8216.285956,612.876398
3389.530092,222.061783,-7698.141797,76.609550
3389.530420,-888.247130,-9770.718434,306.438199
3389.530747,370.102971,-10881.027347,76.609550
3389.531075,-666.185348,-7994.224174,229.828649
3389.531402,-814.226536,-8216.285956,-919.314598
3389.531730,-444.123565,-10658.965565,-1915.238745
3389.532058,370.102971,-10584.944971,-1149.143247
3389.532385,296.082377,-10140.821405,919.314598
3389.532713,370.102971,-9844.739029,1149.143247
3389.533041,888.247130,-9400.615463,-306.438199
3389.533368,1850.514855,-10955.047942,-153.219100
3389.533696,740.205942,-9474.636058,612.876398
3389.534024,-444.123565,-7846.182985,76.609550
3389.534351,-1554.432478,-7698.141797,612.876398
3389.534679,-1406.391290,-9844.739029,0.000000
3389.535007,-222.061783,-9918.759623,76.609550
3389.535334,-666.185348,-9178.553681,0.000000
3389.535662,-888.247130,-8438.347739,306.438199
3389.535990,1110.308913,-9548.656652,-306.438199
3389.536317,2368.659014,-9918.759623,-1685.410096
3389.536645,444.123565,-10214.842000,0.000000
3389.536973,444.123565,-10436.903782,995.924147
3389.537300,2072.576638,-11473.192101,612.876398
3389.537628,2072.576638,-11695.253884,76.609550
3389.537955,370.102971,-10214.842000,612.876398
3389.538283,-1110.308913,-8956.491898,1225.752797
3389.538611,-814.226536,-8290.306550,-306.438199
3389.538938,-1036.288319,-9622.677246,-1378.971896
3389.539266,-2516.700203,-8734.430116,-2145.067394
3389.539594,-3404.947333,-6735.874072,-1991.848295
3389.539921,-2368.659014,-7698.141797,-2221.676944
3389.540249,74.020594,-11843.295072,-919.314598
3389.540577,2886.803174,-13323.706956,536.266849
3389.540904,2664.741391,-11547.212695,2221.676944
3389.541232,2886.803174,-9474.636058,1838.629195
3389.541560,4219.173869,-9030.512492,-612.876398
3389.541887,2812.782580,-9770.718434,0.000000
3389.542215,-592.164754,-8734.430116,1608.800546
3389.542542,-1332.370696,-7550.100608,459.657299
3389.542870,0.000000,-8586.388927,-1685.410096
3389.543198,296.082377,-11399.171507,-1532.190996
3389.543525,370.102971,-13027.624579,76.609550
3389.543853,296.082377,-12583.501014,536.266849
3389.544181,1554.432478,-10214.842000,-1685.410096
3389.544508,1110.308913,-7920.203579,-2987.772442
3389.544836,0.000000,-8808.450710,-1762.019645
3389.545163,-592.164754,-8216.285956,0.000000
3389.545491,0.000000,-7994.224174,1149.143247
3389.545819,148.041188,-9474.636058,1225.752797
3389.546146,592.164754,-10732.986159,76.609550
3389.546474,296.082377,-10140.821405,-1072.533697
3389.546802,-444.123565,-10214.842000,-306.438199
3389.547129,444.123565,-9992.780217,-536.266849
3389.547457,2220.617826,-9622.677246,-1608.800546
3389.547785,1554.432478,-8438.347739,-689.485948
3389.548112,0.000000,-9030.512492,1532.190996
3389.548440,-518.144159,-9696.697840,2604.724693
3389.548767,-444.123565,-10140.821405,306.438199
3389.549095,0.000000,-8586.388927,-1378.971896
3389.549423,-1184.329507,-8882.471304,-995.924147
3389.549750,-592.164754,-10066.800811,0.000000
3389.550078,518.144159,-10066.800811,1072.533697
3389.550406,444.123565,-10658.965565,689.485948
3389.550733,296.082377,-10807.006753,-766.095498
3389.551061,296.082377,-8808.450710,-1302.362347
3389.551389,1110.308913,-9252.574275,-919.314598
3389.551716,0.000000,-10881.027347,766.095498
3389.552044,-370.102971,-10066.800811,612.876398
3389.552371,-666.185348,-9252.574275,766.095498
3389.552699,-370.102971,-9030.512492,229.828649
3389.553027,296.082377,-8956.491898,229.828649
3389.553354,444.123565,-9622.677246,919.314598
3389.553682,592.164754,-9326.594869,459.657299
3389.554010,1036.288319,-8216.285956,-1838.629195
3389.554337,888.247130,-8512.368333,-2757.943793
3389.554665,814.226536,-12657.521608,-612.876398
3389.554993,666.185348,-12657.521608,1302.362347
3389.555320,1332.370696,-11177.109724,383.047749
3389.555648,740.205942,-8438.347739,842.705048
3389.555975,1406.391290,-9400.615463,-153.219100
3389.556303,296.082377,-9030.512492,689.485948
3389.556631,-1184.329507,-8364.327145,842.705048
3389.556958,-1480.411884,-7254.018232,-1072.533697
3389.557286,-1258.350101,-8142.265362,-3447.429741
3389.557614,-2886.803174,-8364.327145,-2757.943793
3389.557941,-2368.659014,-10066.800811,-1991.848295
3389.558269,0.000000,-11177.109724,383.047749
3389.558597,3478.967927,-11695.253884,229.828649
3389.558924,3552.988522,-12509.480420,919.314598
3389.559252,2886.803174,-10436.903782,229.828649
3389.559579,2664.741391,-7624.121203,-766.095498
3389.559907,1406.391290,-8216.285956,76.609550
3389.560235,0.000000,-9474.636058,306.438199
3389.560562,-1406.391290,-8438.347739,0.000000
3389.560890,-1258.350101,-9178.553681,76.609550
3389.561218,296.082377,-12287.418637,536.266849
3389.561545,1258.350101,-13471.748144,76.609550
3389.561873,1258.350101,-11621.233289,-842.705048
3389.562201,-148.041188,-8216.285956,-1532.190996
3389.562528,-1480.411884,-8660.409521,-2451.505594
3389.562856,-296.082377,-8290.306550,-2451.505594
3389.563183,296.082377,-9326.594869,-842.705048
3389.563511,0.000000,-9104.533087,1378.971896
3389.563839,0.000000,-9992.780217,2374.896044
3389.564166,888.247130,-9992.780217,1149.143247
3389.564494,1480.411884,-9474.636058,842.705048
3389.564822,814.226536,-9622.677246,-306.438199
3389.565149,-518.144159,-9030.512492,0.000000
3389.565477,-740.205942,-8438.347739,-1149.143247
3389.565805,148.041188,-8290.306550,-612.876398
3389.566132,-518.144159,-10436.903782,-383.047749
3389.566460,-2072.576638,-10362.883188,689.485948
3389.566787,-2072.576638,-8882.471304,153.219100
3389.567115,-1702.473667,-7402.059420,-459.657299
3389.567443,1036.288319,-10510.924376,-383.047749
3389.567770,1036.288319,-10732.986159,0.000000
3389.568098,222.061783,-9400.615463,1072.533697
3389.568426,370.102971,-9326.594869,0.000000
3389.568753,1998.556043,-10955.047942,-1991.848295
3389.569081,888.247130,-10881.027347,-1532.190996
3389.569409,-148.041188,-8956.491898,-612.876398
3389.569736,-962.267725,-8734.430116,-612.876398
3389.570064,74.020594,-10732.986159,76.609550
3389.570391,1924.535449,-11547.212695,536.266849
3389.570719,1258.350101,-9622.677246,1608.800546
3389.571047,0.000000,-8290.306550,1455.581446
3389.571374,1406.391290,-8216.285956,-459.657299
3389.571702,1628.453072,-9918.759623,-2757.943793
3389.572030,592.164754,-10066.800811,-2528.115143
3389.572357,296.082377,-9696.697840,-1072.533697
3389.572685,518.144159,-10510.924376,459.657299
3389.573013,2590.720797,-12287.418637,612.876398
3389.573340,2442.679609,-11843.295072,842.705048
3389.573668,1110.308913,-10436.903782,2145.067394
3389.573995,592.164754,-8290.306550,1072.533697
3389.574323,1184.329507,-8364.327145,-1149.143247
3389.574651,-814.226536,-9030.512492,-1915.238745
3389.574978,-2442.679609,-7846.182985,-766.095498
3389.575306,-4293.194464,-7772.162391,-153.219100
3389.575634,-2368.659014,-7846.182985,-919.314598
3389.575961,592.164754,-10066.800811,-766.095498
3389.576289,1850.514855,-11399.171507,383.047749
3389.576617,1776.494261,-11473.192101,2528.115143
3389.576944,3108.864956,-10214.842000,995.924147
3389.577272,3478.967927,-9474.636058,-1455.581446
3389.577599,1554.432478,-9622.677246,-1072.533697
3389.577927,-222.061783,-8586.388927,689.485948
3389.578255,-740.205942,-7179.997637,1302.362347
3389.578582,1036.288319,-7994.224174,-919.314598
3389.578910,666.185348,-11325.150913,1149.143247
3389.579238,0.000000,-12805.562797,1838.629195
3389.579565,518.144159,-11547.212695,842.705048
3389.579893,1036.288319,-8068.244768,-2298.286494
3389.580221,-444.123565,-8142.265362,-3907.087040
3389.580548,-2368.659014,-9918.759623,-1762.019645
3389.580876,-1776.494261,-9030.512492,-1532.190996
3389.581203,-1258.350101,-8216.285956,-306.438199
3389.581531,-814.226536,-9992.780217,1378.971896
3389.581859,1036.288319,-11843.295072,689.485948
3389.582186,444.123565,-10881.027347,536.266849
3389.582514,592.164754,-10214.842000,-383.047749
3389.582842,814.226536,-9030.512492,-2374.896044
3389.583169,1628.453072,-10288.862594,-1532.190996
3389.583497,148.041188,-9918.759623,-689.485948
3389.583825,-1850.514855,-10214.842000,306.438199
3389.584152,-2738.761985,-9400.615463,0.000000
3389.584480,-1554.432478,-9844.739029,-995.924147
3389.584807,-592.164754,-9770.718434,-1762.019645
3389.585135,-370.102971,-9918.759623,-766.095498
3389.585463,592.164754,-11251.130318,1302.362347
3389.585790,2590.720797,-9474.636058,383.047749
3389.586118,1776.494261,-9474.636058,-919.314598
3389.586446,-592.164754,-9622.677246,76.609550
3389.586773,-1332.370696,-8808.450710,306.438199
3389.587101,-296.082377,-8438.347739,0.000000
3389.587429,74.020594,-9918.759623,-306.438199
3389.587756,0.000000,-10288.862594,459.657299
3389.588084,0.000000,-9326.594869,1149.143247
3389.588411,518.144159,-8364.327145,919.314598
3389.588739,1480.411884,-9548.656652,-153.219100
3389.589067,1110.308913,-8290.306550,-995.924147
3389.589394,518.144159,-7402.059420,-689.485948
3389.589722,-444.123565,-8438.347739,-536.266849
3389.590050,888.247130,-10584.944971,306.438199
3389.590377,2220.617826,-10881.027347,1225.752797
3389.590705,1554.432478,-10214.842000,1378.971896
3389.591032,1406.391290,-11991.336260,229.828649
3389.591360,1628.453072,-10436.903782,-1915.238745
3389.591688,1998.556043,-8882.471304,-2068.457845
3389.592015,1036.288319,-8512.368333,0.000000
3389.592343,962.267725,-10436.903782,1149.143247
3389.592671,-1332.370696,-9548.656652,1378.971896
3389.592998,-1406.391290,-9474.636058,-612.876398
3389.593326,-518.144159,-9696.697840,-1838.629195
3389.593654,-370.102971,-9844.739029,-1302.362347
3389.593981,370.102971,-10362.883188,0.000000
3389.594309,2590.720797,-10732.986159,0.000000
3389.594636,3182.885551,-11695.253884,-306.438199
3389.594964,2960.823768,-10436.903782,-153.219100
3389.595292,1184.329507,-9474.636058,-612.876398
3389.595619,-518.144159,-9326.594869,0.000000
3389.595947,-1036.288319,-10288.862594,536.266849
3389.596275,-592.164754,-10288.862594,383.047749
3389.596602,-518.144159,-9992.780217,0.000000
3389.596930,592.164754,-10288.862594,-306.438199
3389.597258,1776.494261,-10066.800811,0.000000
3389.597585,1776.494261,-9844.739029,-153.219100
3389.597913,888.247130,-9030.512492,0.000000
3389.598240,-1480.411884,-7105.977043,-229.828649
3389.598568,-2442.679609,-7105.977043,-459.657299
3389.598896,-2220.617826,-8512.368333,0.000000
3389.599223,-518.144159,-9918.759623,-1302.362347
3389.599551,-666.185348,-11177.109724,0.000000
3389.599879,444.123565,-11547.212695,306.438199
3389.600206,1406.391290,-9474.636058,-1685.410096
3389.600534,1036.288319,-8882.471304,-1378.971896
3389.600862,1184.329507,-8956.491898,383.047749
3389.601189,-740.205942,-7920.203579,2451.505594
3389.601517,-1850.514855,-8216.285956,2221.676944
3389.601844,-1036.288319,-10881.027347,-229.828649
3389.602172,-1036.288319,-9252.574275,-1838.629195
3389.602500,-888.247130,-9474.636058,-1838.629195
3389.602827,-518.144159,-9474.636058,-995.924147
3389.603155,888.247130,-10658.965565,-689.485948
3389.603483,444.123565,-11251.130318,-306.438199
3389.603810,444.123565,-11325.150913,-459.657299
3389.604138,0.000000,-7920.203579,-612.876398
3389.604466,740.205942,-10214.842000,76.609550
3389.604793,592.164754,-11843.295072,0.000000
3389.605121,-1110.308913,-10584.944971,459.657299
3389.605448,-1850.514855,-8512.368333,-842.705048
3389.605776,814.226536,-9178.553681,-1762.019645
3389.606104,1406.391290,-9992.780217,-1302.362347
3389.606431,-222.061783,-8734.430116,689.485948
3389.606759,444.123565,-8956.491898,1838.629195
3389.607087,1554.432478,-8216.285956,0.000000
3389.607414,2368.659014,-10658.965565,-1225.752797
3389.607742,-222.061783,-11251.130318,383.047749
3389.608070,0.000000,-9770.718434,919.314598
3389.608397,1702.473667,-9400.615463,-459.657299
3389.608725,2812.782580,-11251.130318,-1608.800546
3389.609052,1850.514855,-11399.171507,-1455.581446
3389.609380,814.226536,-9696.697840,153.219100
3389.609708,1628.453072,-7402.059420,612.876398
3389.610035,2220.617826,-8956.491898,842.705048
3389.610363,1036.288319,-10732.986159,842.705048
3389.610691,-1258.350101,-8290.306550,1302.362347
3389.611018,-1258.350101,-7476.080014,459.657299
3389.611346,814.226536,-9696.697840,-1685.410096
3389.611674,1406.391290,-11843.295072,-612.876398
3389.612001,1110.308913,-9844.739029,0.000000
3389.612329,296.082377,-8586.388927,0.000000
3389.612656,-148.041188,-8142.265362,-919.314598
3389.612984,370.102971,-8882.471304,-919.314598
3389.613312,-518.144159,-9844.739029,306.438199
3389.613639,-814.226536,-9844.739029,1072.533697
3389.613967,518.144159,-11399.171507,766.095498
3389.614295,2812.782580,-11547.212695,-536.266849
3389.614622,2590.720797,-11103.089130,-1072.533697
3389.614950,1702.473667,-9252.574275,76.609550
3389.615278,148.041188,-8142.265362,-306.438199
3389.615605,-296.082377,-7402.059420,766.095498
3389.615933,962.267725,-9252.574275,229.828649
3389.616260,370.102971,-9326.594869,229.828649
3389.616588,-592.164754,-9770.718434,1225.752797
3389.616916,-222.061783,-12287.418637,0.000000
3389.617243,1628.453072,-11769.274478,-2451.505594
3389.617571,148.041188,-10732.986159,-2604.724693
3389.617899,-1850.514855,-9992.780217,-2068.457845
3389.618226,-2442.679609,-8586.388927,-1915.238745
3389.618554,-148.041188,-8734.430116,0.000000
3389.618882,0.000000,-9622.677246,1915.238745
3389.619209,-1924.535449,-9918.759623,3600.648841
3389.619537,-2442.679609,-9178.553681,1302.362347
3389.619864,148.041188,-7772.162391,-2834.553343
3389.620192,592.164754,-9622.677246,-3370.820191
3389.620520,-222.061783,-10510.924376,-766.095498
3389.620847,0.000000,-11177.109724,2298.286494
3389.621175,888.247130,-7476.080014,536.266849
3389.621503,1924.535449,-9548.656652,0.000000
3389.621830,-296.082377,-11103.089130,919.314598
3389.622158,-1110.308913,-9326.594869,229.828649
3389.622486,-1184.329507,-8364.327145,-766.095498
3389.622813,-666.185348,-8734.430116,-1762.019645
3389.623141,-592.164754,-11325.150913,-1302.362347
3389.623468,666.185348,-9992.780217,0.000000
3389.623796,518.144159,-8142.265362,459.657299
3389.624124,1184.329507,-9178.553681,0.000000
3389.624451,1406.391290,-9770.718434,612.876398
3389.624779,1332.370696,-7994.224174,306.438199
3389.625107,0.000000,-7476.080014,-229.828649
3389.625434,-518.144159,-9252.574275,-1072.533697
3389.625762,888.247130,-11991.336260,-1378.971896
3389.626090,1406.391290,-12213.398043,-919.314598
3389.626417,2146.597232,-11251.130318,-1225.752797
3389.626745,1036.288319,-9474.636058,-842.705048
3389.627072,1554.432478,-9992.780217,459.657299
3389.627400,2442.679609,-10807.006753,459.657299
3389.627728,740.205942,-8734.430116,536.266849
3389.628055,148.041188,-8586.388927,536.266849
3389.628383,592.164754,-10658.965565,0.000000
3389.628711,1924.535449,-10584.944971,-766.095498
3389.629038,962.267725,-8216.285956,-1762.019645
3389.629366,148.041188,-8808.450710,153.219100
3389.629694,0.000000,-9696.697840,766.095498
3389.630021,666.185348,-10362.883188,536.266849
3389.630349,0.000000,-9770.718434,153.219100
3389.630676,-222.061783,-7994.224174,-995.924147
3389.631004,-1258.350101,-9252.574275,-536.266849
3389.631332,-1110.308913,-10066.800811,-689.485948
3389.631659,-296.082377,-9770.718434,-689.485948
3389.631987,1924.535449,-9696.697840,-766.095498
3389.632315,1850.514855,-11103.089130,0.000000
3389.632642,1110.308913,-10584.944971,306.438199
3389.632970,1776.494261,-9474.636058,842.705048
3389.633297,2072.576638,-8586.388927,1302.362347
3389.633625,1998.556043,-8364.327145,1378.971896
3389.633953,-370.102971,-7328.038826,1838.629195
3389.634280,-962.267725,-7402.059420,612.876398
3389.634608,592.164754,-9992.780217,-383.047749
3389.634936,1776.494261,-12509.480420,-1225.752797
3389.635263,740.205942,-12953.603985,-1225.752797
3389.635591,0.000000,-10288.862594,-1225.752797
3389.635919,962.267725,-9474.636058,-1225.752797
3389.636246,0.000000,-9770.718434,0.000000
3389.636574,-2812.782580,-9622.677246,1072.533697
3389.636901,-3849.070898,-9992.780217,229.828649
3389.637229,-2294.638420,-9770.718434,-2221.676944
3389.637557,-444.123565,-9178.553681,-3677.258390
3389.637884,-296.082377,-8512.368333,-1915.238745
3389.638212,-592.164754,-9474.636058,1302.362347
3389.638540,1554.432478,-10140.821405,2068.457845
3389.638867,1998.556043,-10584.944971,919.314598
3389.639195,1554.432478,-9474.636058,-766.095498
3389.639523,-592.164754,-8438.347739,-689.485948
3389.639850,-1628.453072,-9104.533087,0.000000
3389.640178,-1332.370696,-10362.883188,153.219100
3389.640505,-1480.411884,-9844.739029,-1915.238745
3389.640833,-2294.638420,-9844.739029,-1072.533697
3389.641161,-666.185348,-10140.821405,-842.705048
3389.641489,1998.556043,-9474.636058,-306.438199
3389.641816,962.267725,-9548.656652,995.924147
3389.642144,-666.185348,-9030.512492,2681.334243
3389.642472,0.000000,-6957.935855,919.314598
3389.642800,740.205942,-5995.668130,-766.095498
3389.643127,592.164754,-9548.656652,-2221.676944
3389.643455,518.144159,-11177.109724,76.609550
3389.643783,370.102971,-10584.944971,383.047749
3389.644110,740.205942,-10140.821405,-919.314598
3389.644438,1850.514855,-11991.336260,-1915.238745
3389.644766,1184.329507,-11029.068536,-689.485948
3389.645094,1332.370696,-10066.800811,1072.533697
3389.645421,1184.329507,-10807.006753,766.095498
3389.645749,1628.453072,-10066.800811,-1072.533697
3389.646077,1776.494261,-9104.533087,-1532.190996
3389.646405,222.061783,-8438.347739,0.000000
3389.646732,1036.288319,-9622.677246,153.219100
3389.647060,2812.782580,-10732.986159,459.657299
3389.647388,2812.782580,-9474.636058,995.924147
3389.647715,1110.308913,-10881.027347,766.095498
3389.648043,-1110.308913,-10436.903782,536.266849
3389.648371,74.020594,-9844.739029,-919.314598
3389.648699,-370.102971,-8290.306550,-2451.505594
3389.649026,-1258.350101,-10066.800811,-2221.676944
3389.649354,-2294.638420,-10066.800811,-383.047749
3389.649682,-518.144159,-9252.574275,0.000000
3389.650009,2812.782580,-9474.636058,-383.047749
3389.650337,2516.700203,-11251.130318,1149.143247
3389.650665,1702.473667,-9326.594869,2604.724693
3389.650993,1332.370696,-8290.306550,2145.067394
3389.651320,2146.597232,-7550.100608,76.609550
3389.651648,3034.844362,-8882.471304,-919.314598
3389.651976,1406.391290,-9548.656652,-306.438199
3389.652304,148.041188,-8364.327145,1072.533697
3389.652631,814.226536,-8364.327145,-612.876398
3389.652959,962.267725,-10584.944971,-689.485948
3389.653287,370.102971,-14359.995275,-229.828649
3389.653614,740.205942,-11843.295072,-766.095498
3389.653942,-296.082377,-8956.491898,-689.485948
3389.654270,-296.082377,-8808.450710,-536.266849
3389.654598,-1554.432478,-10362.883188,0.000000
3389.654925,-4811.338623,-8364.327145,-229.828649
3389.655253,-4737.318029,-7994.224174,-1608.800546
3389.655581,-1924.535449,-8512.368333,-3677.258390
3389.655909,222.061783,-10140.821405,-2221.676944
3389.656236,370.102971,-9474.636058,842.705048
3389.656564,1332.370696,-10214.842000,3140.991542
3389.656892,2886.803174,-10955.047942,1838.629195
3389.657219,3552.988522,-11251.130318,-306.438199
3389.657547,962.267725,-10214.842000,-1149.143247
3389.657875,-1702.473667,-8734.430116,-1302.362347
3389.658203,-2368.659014,-9030.512492,-383.047749
3389.658530,-1628.453072,-9400.615463,-995.924147
3389.658858,-1702.473667,-10658.965565,0.000000
3389.659186,-2368.659014,-10214.842000,842.705048
3389.659514,-592.164754,-9104.533087,0.000000
3389.659841,222.061783,-9030.512492,-766.095498
3389.660169,518.144159,-9622.677246,-153.219100
3389.660497,222.061783,-7772.162391,612.876398
3389.660824,370.102971,-5847.626942,1915.238745
3389.661152,0.000000,-8438.347739,2298.286494
3389.661480,814.226536,-10584.944971,536.266849
3389.661808,666.185348,-10584.944971,0.000000
3389.662135,0.000000,-9696.697840,-842.705048
3389.662463,0.000000,-11251.130318,-1608.800546
3389.662791,518.144159,-10066.800811,-1378.971896
3389.663118,2072.576638,-11473.192101,-612.876398
3389.663446,1258.350101,-10955.047942,0.000000
3389.663774,1036.288319,-9548.656652,76.609550
3389.664102,1258.350101,-8438.347739,536.266849
3389.664429,2368.659014,-8290.306550,689.485948
3389.664757,2294.638420,-9474.636058,689.485948
3389.665085,74.020594,-8290.306550,1302.362347
3389.665413,888.247130,-9696.697840,459.657299
3389.665740,2072.576638,-10584.944971,-1072.533697
3389.666068,1554.432478,-12213.398043,-1072.533697
3389.666396,-888.247130,-11251.130318,-459.657299
3389.666723,-2072.576638,-9474.636058,-1991.848295
3389.667051,-2146.597232,-8216.285956,-2681.334243
3389.667379,-1406.391290,-10066.800811,-1225.752797
3389.667707,666.185348,-11029.068536,459.657299
3389.668034,2072.576638,-11473.192101,2604.724693
3389.668362,2294.638420,-10584.944971,1991.848295
3389.668690,3182.885551,-9252.574275,153.219100
3389.669018,2368.659014,-8142.265362,536.266849
3389.669345,962.267725,-7031.956449,383.047749
3389.669673,148.041188,-7550.100608,842.705048
3389.670001,592.164754,-8216.285956,383.047749
3389.670328,962.267725,-9548.656652,0.000000
3389.670656,1406.391290,-10732.986159,-229.828649
3389.670984,1332.370696,-12213.398043,0.000000
3389.671312,1184.329507,-12879.583391,0.000000
3389.671639,1480.411884,-10214.842000,-1915.238745
3389.671967,-814.226536,-7846.182985,-2604.724693
3389.672295,-3108.864956,-9474.636058,-842.705048
3389.672622,-2220.617826,-8512.368333,-766.095498
3389.672950,-1184.329507,-7328.038826,0.000000
3389.673278,-1554.432478,-9400.615463,1149.143247
3389.673606,-3404.947333,-9918.759623,1072.533697
3389.673933,-1998.556043,-9474.636058,-1378.971896
3389.674261,1406.391290,-8956.491898,-3447.429741
3389.674589,2812.782580,-12213.398043,-2451.505594
3389.674917,1924.535449,-11547.212695,919.314598
3389.675244,814.226536,-9918.759623,3217.601092
3389.675572,1628.453072,-9474.636058,1685.410096
3389.675900,1850.514855,-10732.986159,0.000000
3389.676227,-1110.308913,-10658.965565,-306.438199
3389.676555,-3330.926739,-8068.244768,459.657299
3389.676883,-3330.926739,-7254.018232,-1302.362347
3389.677211,-2368.659014,-9178.553681,-2374.896044
3389.677538,-2294.638420,-10140.821405,-2374.896044
3389.677866,-592.164754,-9178.553681,-612.876398
3389.678194,444.123565,-9178.553681,76.609550
3389.678522,2368.659014,-9622.677246,536.266849
3389.678849,2738.761985,-10362.883188,1685.410096
3389.679177,3034.844362,-8660.409521,1685.410096
3389.679505,1850.514855,-7402.059420,689.485948
3389.679832,0.000000,-8808.450710,459.657299
3389.680160,-296.082377,-11029.068536,-536.266849
3389.680488,-888.247130,-10288.862594,-766.095498
3389.680816,-370.102971,-10214.842000,-1762.019645
3389.681143,296.082377,-11103.089130,-1685.410096
3389.681471,2220.617826,-12361.439231,-383.047749
3389.681799,2738.761985,-10584.944971,919.314598
3389.682126,2294.638420,-9252.574275,1378.971896
3389.682454,888.247130,-8660.409521,995.924147
3389.682782,518.144159,-7550.100608,306.438199
3389.683110,740.205942,-8734.430116,153.219100
3389.683437,0.000000,-9030.512492,306.438199
3389.683765,0.000000,-9844.739029,919.314598
3389.684093,-296.082377,-10955.047942,536.266849
3389.684421,1036.288319,-10881.027347,-1608.800546
3389.684748,0.000000,-10510.924376,-2604.724693
3389.685076,-2442.679609,-10140.821405,-1838.629195
3389.685404,-2072.576638,-9696.697840,-1072.533697
3389.685731,1110.308913,-9844.739029,-1762.019645
3389.686059,1998.556043,-10955.047942,153.219100
3389.686387,1998.556043,-10658.965565,2681.334243
3389.686715,1554.432478,-8364.327145,3140.991542
3389.687042,2664.741391,-7105.977043,1608.800546
3389.687370,2812.782580,-8882.471304,76.609550
3389.687698,888.247130,-9326.594869,153.219100
3389.688026,-592.164754,-7920.203579,995.924147
3389.688353,740.205942,-8438.347739,-383.047749
3389.688681,2738.761985,-11325.150913,-2451.505594
3389.689009,1036.288319,-15248.242405,0.000000
3389.689336,518.144159,-12509.480420,-536.266849
3389.689664,-444.123565,-7846.182985,-842.705048
3389.689992,-1406.391290,-8956.491898,-842.705048
3389.690320,-1406.391290,-9548.656652,-1072.533697
3389.690647,-2368.659014,-7772.162391,76.609550
3389.690975,-2220.617826,-7254.018232,1072.533697
3389.691303,-740.205942,-7920.203579,-612.876398
3389.691630,-1332.370696,-9326.594869,-229.828649
3389.691958,-740.205942,-9770.718434,-306.438199
3389.692286,-370.102971,-9326.594869,-383.047749
3389.692614,1480.411884,-9844.739029,-1072.533697
3389.692941,2220.617826,-10584.944971,-383.047749
3389.693269,1702.473667,-11473.192101,1838.629195
3389.693597,1184.329507,-9844.739029,2221.676944
3389.693925,1480.411884,-9992.780217,919.314598
3389.694252,1258.350101,-9770.718434,-919.314598
3389.694580,-888.247130,-10140.821405,-1608.800546
3389.694908,-2960.823768,-8956.491898,-1072.533697
3389.695235,-2738.761985,-7920.203579,-995.924147
3389.695563,-1702.473667,-8290.306550,-1378.971896
3389.695891,-444.123565,-9474.636058,612.876398
3389.696219,2072.576638,-10288.862594,1378.971896
3389.696546,1406.391290,-9992.780217,995.924147
3389.696874,2368.659014,-11251.130318,0.000000
3389.697202,2960.823768,-10362.883188,-1532.190996
3389.697530,2146.597232,-8882.471304,-306.438199
3389.697857,222.061783,-6439.791695,1225.752797
3389.698185,-1628.453072,-8882.471304,1302.362347
3389.698513,-2368.659014,-10807.006753,1532.190996
3389.698840,-148.041188,-10881.027347,-1072.533697
3389.699168,962.267725,-10955.047942,-1762.019645
3389.699496,740.205942,-10584.944971,-536.266849
3389.699824,814.226536,-9252.574275,-306.438199
3389.700151,1480.411884,-10658.965565,0.000000
3389.700479,2072.576638,-9918.759623,-1378.971896
3389.700807,222.061783,-7624.121203,-689.485948
3389.701135,-1628.453072,-8068.244768,1685.410096
3389.701462,-1258.350101,-7920.203579,2528.115143
3389.701790,888.247130,-11547.212695,383.047749
3389.702118,222.061783,-12287.418637,-766.095498
3389.702445,74.020594,-10584.944971,-1991.848295
3389.702773,-296.082377,-8142.265362,-3447.429741
3389.703101,-740.205942,-10436.903782,-2604.724693
3389.703429,-1258.350101,-9622.677246,-1762.019645
3389.703756,0.000000,-9548.656652,-536.266849
3389.704084,0.000000,-10436.903782,1072.533697
3389.704412,1406.391290,-9992.780217,2298.286494
3389.704739,2442.679609,-9474.636058,2451.505594
3389.705067,2738.761985,-8660.409521,2681.334243
3389.705395,1998.556043,-9474.636058,1378.971896
3389.705723,1776.494261,-8734.430116,-1225.752797
3389.706050,518.144159,-8660.409521,-2298.286494
3389.706378,518.144159,-8216.285956,-1685.410096
3389.706706,592.164754,-11769.274478,0.000000
3389.707034,814.226536,-13471.748144,383.047749
3389.707361,1850.514855,-11843.295072,1149.143247
3389.707689,0.000000,-9474.636058,-689.485948
3389.708017,-2146.597232,-8586.388927,-536.266849
3389.708344,-1332.370696,-7772.162391,-1532.190996
3389.708672,-962.267725,-8142.265362,-1915.238745
3389.709000,-740.205942,-8808.450710,-1072.533697
3389.709328,-888.247130,-7698.141797,383.047749
3389.709655,-1554.432478,-8808.450710,1915.238745
3389.709983,0.000000,-10436.903782,459.657299
3389.710311,2294.638420,-11695.253884,229.828649
3389.710639,2294.638420,-9474.636058,-153.219100
3389.710966,1184.329507,-10066.800811,536.266849
3389.711294,1924.535449,-10214.842000,612.876398
3389.711622,2812.782580,-10955.047942,-306.438199
3389.711949,1850.514855,-9178.553681,-1225.752797
3389.712277,-740.205942,-9474.636058,-306.438199
3389.712605,-3256.906145,-9030.512492,-689.485948
3389.712933,-2516.700203,-8216.285956,-536.266849
3389.713260,-1110.308913,-9400.615463,0.000000
3389.713588,-1110.308913,-9030.512492,612.876398
3389.713916,-222.061783,-9696.697840,766.095498
3389.714243,1480.411884,-9252.574275,0.000000
3389.714571,2072.576638,-9696.697840,-1608.800546
3389.714899,1036.288319,-10955.047942,-1378.971896
3389.715227,740.205942,-9770.718434,-689.485948
3389.715554,1110.308913,-6661.853478,-612.876398
3389.715882,814.226536,-8586.388927,1685.410096
3389.716210,-222.061783,-12583.501014,3447.429741
3389.716538,-74.020594,-10881.027347,2604.724693
3389.716865,1702.473667,-9400.615463,-1225.752797
3389.717193,2368.659014,-9770.718434,-4136.915689
3389.717521,1924.535449,-10214.842000,-3064.381992
3389.717848,-592.164754,-9548.656652,0.000000
3389.718176,-962.267725,-10214.842000,1149.143247
3389.718504,0.000000,-8882.471304,-995.924147
3389.718832,-296.082377,-10807.006753,229.828649
3389.719159,-296.082377,-10807.006753,919.314598
3389.719487,74.020594,-9326.594869,842.705048
3389.719815,1184.329507,-9918.759623,-612.876398
3389.720143,1702.473667,-10955.047942,-1915.238745
3389.720470,0.000000,-9400.615463,-2451.505594
3389.720798,-2368.659014,-8734.430116,-766.095498
3389.721126,-1850.514855,-9252.574275,-689.485948
3389.721453,0.000000,-9252.574275,-612.876398
3389.721781,1480.411884,-12657.521608,1685.410096
3389.722109,1406.391290,-10881.027347,1378.971896
3389.722437,1184.329507,-8808.450710,1532.190996
3389.722764,2220.617826,-8216.285956,306.438199
3389.723092,2072.576638,-9918.759623,0.000000
3389.723420,222.061783,-8586.388927,-766.095498
3389.723747,-740.205942,-7105.977043,-1608.800546
3389.724075,0.000000,-8512.368333,-536.266849
3389.724403,2368.659014,-13027.624579,1149.143247
3389.724731,3256.906145,-14804.118840,2145.067394
3389.725058,1332.370696,-9770.718434,1762.019645
3389.725386,-518.144159,-7846.182985,-229.828649
3389.725714,-666.185348,-8142.265362,-3217.601092
3389.726042,-1702.473667,-8808.450710,-2987.772442
3389.726369,-3108.864956,-7402.059420,-919.314598
3389.726697,-3034.844362,-8512.368333,689.485948
3389.727025,-1258.350101,-9104.533087,612.876398
3389.727352,814.226536,-10732.986159,995.924147
3389.727680,2590.720797,-11473.192101,842.705048
3389.728008,2146.597232,-9696.697840,1302.362347
3389.728336,2220.617826,-8956.491898,1302.362347
3389.728663,1258.350101,-8734.430116,-612.876398
3389.728991,74.020594,-9696.697840,-1685.410096
3389.729319,-814.226536,-9844.739029,-842.705048
3389.729647,-1480.411884,-9770.718434,-459.657299
3389.729974,-296.082377,-10510.924376,-612.876398
3389.730302,222.061783,-11843.295072,0.000000
3389.730630,-222.061783,-11325.150913,153.219100
3389.730957,0.000000,-9918.759623,-689.485948
3389.731285,2220.617826,-9400.615463,-2221.676944
3389.731613,814.226536,-7846.182985,-1225.752797
3389.731941,-1258.350101,-7105.977043,459.657299
3389.732268,-962.267725,-8882.471304,1149.143247
3389.732596,-370.102971,-10288.862594,0.000000
3389.732924,1332.370696,-10955.047942,-612.876398
3389.733252,2368.659014,-12509.480420,306.438199
3389.733579,1110.308913,-10658.965565,1302.362347
3389.733907,296.082377,-10140.821405,995.924147
3389.734235,1332.370696,-8586.388927,-612.876398
3389.734562,222.061783,-8438.347739,-1762.019645
3389.734890,-1110.308913,-8586.388927,-306.438199
3389.735218,-1036.288319,-9178.553681,919.314598
3389.735546,74.020594,-9178.553681,229.828649
3389.735873,1110.308913,-10436.903782,383.047749
3389.736201,1036.288319,-11547.212695,0.000000
3389.736529,296.082377,-9252.574275,-306.438199
3389.736856,518.144159,-8290.306550,76.609550
3389.737184,1554.432478,-8438.347739,0.000000
3389.737512,814.226536,-9770.718434,-689.485948
3389.737840,-1258.350101,-9252.574275,0.000000
3389.738167,-1406.391290,-8734.430116,-383.047749
3389.738495,-1702.473667,-9252.574275,-1072.533697
3389.738823,-666.185348,-10658.965565,0.000000
3389.739150,74.020594,-9474.636058,459.657299
3389.739478,1554.432478,-10066.800811,-153.219100
3389.739806,2220.617826,-10214.842000,76.609550
3389.740133,2368.659014,-10436.903782,153.219100
3389.740461,888.247130,-8068.244768,-306.438199
3389.740789,-518.144159,-7920.203579,-612.876398
3389.741116,0.000000,-9918.759623,-766.095498
3389.741444,518.144159,-9770.718434,-153.219100
3389.741771,1258.350101,-10658.965565,536.266849
3389.742099,1776.494261,-11177.109724,76.609550
3389.742427,1258.350101,-12509.480420,-459.657299
3389.742754,2368.659014,-11991.336260,-1072.533697
3389.743082,2146.597232,-9622.677246,-1608.800546
3389.743410,370.102971,-8290.306550,-1302.362347
3389.743737,-1480.411884,-9474.636058,0.000000
3389.744065,-2664.741391,-9326.594869,1225.752797
3389.744393,-592.164754,-8068.244768,1838.629195
3389.744720,0.000000,-9474.636058,-995.924147
3389.745048,-962.267725,-9844.739029,229.828649
3389.745375,-1036.288319,-9622.677246,0.000000
3389.745703,1702.473667,-8956.491898,-1378.971896
3389.746031,2664.741391,-10584.944971,-766.095498
3389.746358,2368.659014,-10362.883188,-153.219100
3389.746686,222.061783,-8438.347739,2451.505594
3389.747014,-222.061783,-7994.224174,2068.457845
3389.747341,-444.123565,-9104.533087,-229.828649
3389.747669,-1480.411884,-11399.171507,-1915.238745
3389.747996,-2072.576638,-8882.471304,-1762.019645
3389.748324,-1998.556043,-8438.347739,-1378.971896
3389.748652,74.020594,-10732.986159,-1149.143247
3389.748979,1702.473667,-11251.130318,-766.095498
3389.749307,444.123565,-8956.491898,-153.219100
3389.749635,-1258.350101,-9918.759623,919.314598
3389.749962,-962.267725,-7476.080014,766.095498
3389.750290,1406.391290,-9030.512492,76.609550
3389.750617,1036.288319,-10658.965565,-229.828649
3389.750945,0.000000,-11177.109724,1072.533697
3389.751273,444.123565,-9622.677246,-383.047749
3389.751600,1702.473667,-9474.636058,-1608.800546
3389.751928,1110.308913,-10584.944971,-1532.190996
3389.752256,296.082377,-9622.677246,-689.485948
3389.752583,-1406.391290,-9030.512492,766.095498
3389.752911,962.267725,-9400.615463,229.828649
3389.753238,1554.432478,-11621.233289,0.000000
3389.753566,0.000000,-9474.636058,229.828649
3389.753894,-444.123565,-9252.574275,842.705048
3389.754221,1628.453072,-9326.594869,-1838.629195
3389.754549,2146.597232,-10732.986159,-1378.971896
3389.754877,1258.350101,-10955.047942,229.828649
3389.755204,296.082377,-9844.739029,1685.410096
3389.755532,-222.061783,-7402.059420,919.314598
3389.755859,1258.350101,-9696.697840,-766.095498
3389.756187,-518.144159,-10807.006753,-1608.800546
3389.756515,-2886.803174,-9622.677246,0.000000
3389.756842,-1850.514855,-8512.368333,-1072.533697
3389.757170,1480.411884,-8808.450710,-2145.067394
3389.757498,2664.741391,-11621.233289,0.000000
3389.757825,2738.761985,-10807.006753,1991.848295
3389.758153,1776.494261,-9104.533087,2681.334243
3389.758481,1480.411884,-7846.182985,229.828649
3389.758808,1850.514855,-8882.471304,-1149.143247
3389.759136,148.041188,-8364.327145,-1149.143247
3389.759463,-1554.432478,-8216.285956,229.828649
3389.759791,0.000000,-10658.965565,153.219100
3389.760119,2072.576638,-11991.336260,-1532.190996
3389.760446,2294.638420,-13249.686362,-1302.362347
3389.760774,2886.803174,-12213.398043,76.609550
3389.761102,296.082377,-8956.491898,76.609550
3389.761429,-518.144159,-7846.182985,612.876398
3389.761757,-370.102971,-9178.553681,0.000000
3389.762084,-2368.659014,-7105.977043,-536.266849
3389.762412,-2812.782580,-8364.327145,-612.876398
3389.762740,-1998.556043,-9252.574275,-536.266849
3389.763067,-222.061783,-11103.089130,-1225.752797
3389.763395,296.082377,-10140.821405,-1608.800546
3389.763723,1036.288319,-10066.800811,-842.705048
3389.764050,1776.494261,-10140.821405,153.219100
3389.764378,2812.782580,-10140.821405,1149.143247
3389.764705,888.247130,-9844.739029,2451.505594
3389.765033,-1554.432478,-7476.080014,1608.800546
3389.765361,74.020594,-9548.656652,-1072.533697
3389.765688,-1332.370696,-10658.965565,-1378.971896
3389.766016,-1850.514855,-10584.944971,-919.314598
3389.766344,-2146.597232,-9770.718434,-383.047749
3389.766671,-814.226536,-10881.027347,459.657299
3389.766999,814.226536,-9548.656652,-1378.971896
3389.767326,592.164754,-9992.780217,-1532.190996
3389.767654,-1628.453072,-8808.450710,1072.533697
3389.767982,-444.123565,-7772.162391,766.095498
3389.768309,296.082377,-9178.553681,-612.876398
3389.768637,0.000000,-9474.636058,0.000000
3389.768965,148.041188,-9474.636058,229.828649
3389.769292,1110.308913,-9104.533087,766.095498
3389.769620,1110.308913,-10066.800811,-689.485948
3389.769948,592.164754,-10436.903782,-459.657299
3389.770275,1036.288319,-9474.636058,0.000000
3389.770603,-148.041188,-7105.977043,76.609550
3389.770930,-740.205942,-8882.471304,0.000000
3389.771258,-1110.308913,-11473.192101,-1302.362347
3389.771586,-444.123565,-10510.924376,-842.705048
3389.771913,1480.411884,-10066.800811,-995.924147
3389.772241,2664.741391,-10955.047942,-842.705048
3389.772569,2294.638420,-10881.027347,995.924147
3389.772896,3108.864956,-8882.471304,1685.410096
3389.773224,1850.514855,-9622.677246,1072.533697
3389.773551,370.102971,-9474.636058,0.000000
3389.773879,-444.123565,-9252.574275,-536.266849
3389.774207,-1998.556043,-7772.162391,-2068.457845
3389.774534,-2072.576638,-9104.533087,-2145.067394
3389.774862,-1110.308913,-11917.315666,-2145.067394
3389.775190,-518.144159,-11251.130318,536.266849
3389.775517,2220.617826,-9548.656652,306.438199
